"id","trial","direction","condition","corrAns","resp","corr","rt"
"sub-10209782",1,"left","speed","left","right",0,5.87533789999725
"sub-10209782",2,"right","speed","right","right",1,0.822168799997598
"sub-10209782",3,"left","speed","left","left",1,0.935137000000395
"sub-10209782",4,"right","speed","right","right",1,0.745441600003687
"sub-10209782",5,"right","speed","right","right",1,1.50850550000177
"sub-10209782",6,"left","speed","left","left",1,0.939992200001143
"sub-10209782",7,"right","speed","right","right",1,1.64249610000115
"sub-10209782",8,"left","speed","left","left",1,2.17424119999487
"sub-10209782",9,"right","speed","right","right",1,1.37997140000516
"sub-10209782",10,"left","speed","left","left",1,1.54638939999859
"sub-10209782",11,"right","speed","right","right",1,0.716019200001028
"sub-10209782",12,"left","speed","left","right",0,2.32009429999744
"sub-10209782",13,"left","speed","left","left",1,2.49988250000024
"sub-10209782",14,"right","speed","right","right",1,0.749303800002963
"sub-10209782",15,"right","speed","right","right",1,2.86523760000273
"sub-10209782",16,"left","speed","left","left",1,3.79023979999329
"sub-10209782",17,"right","speed","right","right",1,0.764377400002559
"sub-10209782",18,"left","speed","left","left",1,0.899602099998447
"sub-10209782",19,"right","speed","right","right",1,0.843431200002669
"sub-10209782",20,"left","speed","left","left",1,0.891439099999843
"sub-10209782",21,"right","speed","right","right",1,0.657955700000457
"sub-10209782",22,"left","speed","left","left",1,0.744741099995736
"sub-10209782",23,"right","speed","right","right",1,0.749381399997219
"sub-10209782",24,"left","speed","left","left",1,0.714297099999385
"sub-10209782",25,"left","speed","left","right",0,0.83691589999944
"sub-10209782",26,"right","speed","right","left",0,0.851452499999141
"sub-10209782",27,"left","speed","left","left",1,2.44412719999673
"sub-10209782",28,"right","speed","right","right",1,0.646414299997559
"sub-10209782",29,"left","speed","left","right",0,5.7217610000007
"sub-10209782",30,"right","speed","right","right",1,0.716569399999571
"sub-10209782",31,"left","speed","left","left",1,1.58917810000275
"sub-10209782",32,"right","speed","right","right",1,0.863488199996937
"sub-10209782",33,"left","speed","left","left",1,1.42774530000315
"sub-10209782",34,"right","speed","right","right",1,0.61310639999283
"sub-10209782",35,"right","speed","right","right",1,0.877931200004241
"sub-10209782",36,"left","speed","left","left",1,0.905006600005436
"sub-10209782",37,"left","speed","left","right",0,2.42863590000343
"sub-10209782",38,"right","speed","right","right",1,1.23281639999914
"sub-10209782",39,"right","speed","right","right",1,1.34539879999647
"sub-10209782",40,"left","speed","left","left",1,0.97977610000089
"sub-10209782",41,"left","speed","left","left",1,2.17401059999975
"sub-10209782",42,"right","speed","right","right",1,0.659236599996802
"sub-10209782",43,"left","speed","left","left",1,1.31266119999782
"sub-10209782",44,"right","speed","right","right",1,0.662762100000691
"sub-10209782",45,"left","speed","left","left",1,1.12666819999868
"sub-10209782",46,"right","speed","right","right",1,0.63795289999689
"sub-10209782",47,"left","speed","left","right",0,0.8707424000022
"sub-10209782",48,"right","speed","right","right",1,1.52162520000275
"sub-10209782",49,"right","speed","right","right",1,0.897028200000932
"sub-10209782",50,"left","speed","left","left",1,0.777080799998657
"sub-10209782",51,"right","speed","right","right",1,0.524760299995251
"sub-10209782",52,"left","speed","left","left",1,1.03488890000153
"sub-10209782",53,"right","speed","right","right",1,0.569804499995371
"sub-10209782",54,"left","speed","left","right",0,0.49999150000076
"sub-10209782",55,"right","speed","right","right",1,0.960228099997039
"sub-10209782",56,"left","speed","left","left",1,1.31785200000013
"sub-10209782",57,"right","speed","right","right",1,0.720761499993387
"sub-10209782",58,"left","speed","left","left",1,0.721657599999162
"sub-10209782",59,"right","speed","right","right",1,0.596008799999254
"sub-10209782",60,"left","speed","left","left",1,0.928950900000928
"sub-10209782",1,"left","accuracy","left","left",1,0.792209899998852
"sub-10209782",2,"right","accuracy","right","right",1,0.558995499995945
"sub-10209782",3,"left","accuracy","left","left",1,1.15593660000013
"sub-10209782",4,"right","accuracy","right","right",1,1.13817969999945
"sub-10209782",5,"right","accuracy","right","right",1,1.0815866999983
"sub-10209782",6,"left","accuracy","left","left",1,1.9342897999959
"sub-10209782",7,"right","accuracy","right","right",1,0.587748300000385
"sub-10209782",8,"left","accuracy","left","right",0,2.02215319999959
"sub-10209782",9,"right","accuracy","right","right",1,0.796448499997496
"sub-10209782",10,"left","accuracy","left","left",1,1.15265509999881
"sub-10209782",11,"right","accuracy","right","right",1,0.712195299995074
"sub-10209782",12,"left","accuracy","left","left",1,1.84907250000106
"sub-10209782",13,"left","accuracy","left","left",1,0.970168699997885
"sub-10209782",14,"right","accuracy","right","right",1,0.597541199997067
"sub-10209782",15,"right","accuracy","right","right",1,0.698238500001025
"sub-10209782",16,"left","accuracy","left","left",1,0.78596749999997
"sub-10209782",17,"left","accuracy","left","right",0,0.615869900000689
"sub-10209782",18,"right","accuracy","right","right",1,0.560366700003215
"sub-10209782",19,"right","accuracy","right","left",0,0.738269699999364
"sub-10209782",20,"left","accuracy","left","right",0,0.785623199997644
"sub-10209782",21,"right","accuracy","right","right",1,0.815503500001796
"sub-10209782",22,"left","accuracy","left","left",1,0.715813900002104
"sub-10209782",23,"right","accuracy","right","right",1,0.638185999996495
"sub-10209782",24,"left","accuracy","left","left",1,0.857859399999143
"sub-10209782",25,"right","accuracy","right","right",1,0.596337700000731
"sub-10209782",26,"left","accuracy","left","right",0,1.82753659999435
"sub-10209782",27,"left","accuracy","left","left",1,1.33739649999916
"sub-10209782",28,"right","accuracy","right","right",1,1.35960209999757
"sub-10209782",29,"right","accuracy","right","left",0,3.88359499999933
"sub-10209782",30,"left","accuracy","left","left",1,0.712909699999727
"sub-10209782",31,"left","accuracy","left","right",0,0.790342399996007
"sub-10209782",32,"right","accuracy","right","right",1,1.05847849999554
"sub-10209782",33,"right","accuracy","right","right",1,2.21228459999838
"sub-10209782",34,"left","accuracy","left","left",1,2.11317240000062
"sub-10209782",35,"right","accuracy","right","right",1,0.631211600004463
"sub-10209782",36,"left","accuracy","left","right",0,3.91968900000211
"sub-10209782",37,"left","accuracy","left","left",1,1.04698769999959
"sub-10209782",38,"right","accuracy","right","right",1,1.93689379999705
"sub-10209782",39,"left","accuracy","left","right",0,0.698864699996193
"sub-10209782",40,"right","accuracy","right","right",1,0.86602049999783
"sub-10209782",41,"right","accuracy","right","right",1,0.621977599999809
"sub-10209782",42,"left","accuracy","left","right",0,0.766650600002322
"sub-10209782",43,"left","accuracy","left","left",1,1.54675069999939
"sub-10209782",44,"right","accuracy","right","right",1,0.714135200003511
"sub-10209782",45,"left","accuracy","left","right",0,3.39304869999614
"sub-10209782",46,"right","accuracy","right","right",1,0.752499200003513
"sub-10209782",47,"right","accuracy","right","right",1,0.636117800000648
"sub-10209782",48,"left","accuracy","left","left",1,1.08846130000165
"sub-10209782",49,"right","accuracy","right","right",1,2.4316880999977
"sub-10209782",50,"left","accuracy","left","left",1,2.52607519999583
"sub-10209782",51,"right","accuracy","right","right",1,2.50085039999976
"sub-10209782",52,"left","accuracy","left","left",1,0.726518600000418
"sub-10209782",53,"left","accuracy","left","right",0,3.55123670000467
"sub-10209782",54,"right","accuracy","right","right",1,0.977300800004741
"sub-10209782",55,"right","accuracy","right","right",1,1.41893169999821
"sub-10209782",56,"left","accuracy","left","left",1,0.692878800000472
"sub-10209782",57,"left","accuracy","left","right",0,3.32234710000193
"sub-10209782",58,"right","accuracy","right","right",1,0.745239399999264
"sub-10209782",59,"left","accuracy","left","right",0,2.56159710000065
"sub-10209782",60,"right","accuracy","right","right",1,1.83480530000088
"sub-10860809",1,"left","accuracy","left","right",0,1.42624467099813
"sub-10860809",2,"right","accuracy","right","right",1,5.01996906600107
"sub-10860809",3,"left","accuracy","left","left",1,3.21836039999471
"sub-10860809",4,"right","accuracy","right","right",1,1.67383029399934
"sub-10860809",5,"right","accuracy","right","left",0,4.10940276999463
"sub-10860809",6,"left","accuracy","left","left",1,4.33454241000436
"sub-10860809",7,"left","accuracy","left","right",0,2.0160333590029
"sub-10860809",8,"right","accuracy","right","right",1,1.28483855699596
"sub-10860809",9,"left","accuracy","left","left",1,5.36688603399671
"sub-10860809",10,"right","accuracy","right","right",1,0.812726867996389
"sub-10860809",11,"right","accuracy","right","right",1,1.42459629999939
"sub-10860809",12,"left","accuracy","left","left",1,0.954363739998371
"sub-10860809",13,"left","accuracy","left","left",1,1.83716913600074
"sub-10860809",14,"right","accuracy","right","right",1,1.21554084699892
"sub-10860809",15,"right","accuracy","right","right",1,0.928839401000005
"sub-10860809",16,"left","accuracy","left","left",1,1.61537393799517
"sub-10860809",17,"left","accuracy","left","left",1,1.04380160100118
"sub-10860809",18,"right","accuracy","right","right",1,1.42643601100281
"sub-10860809",19,"left","accuracy","left","left",1,1.16689927900006
"sub-10860809",20,"right","accuracy","right","right",1,0.749069487996167
"sub-10860809",21,"right","accuracy","right","right",1,1.32884537000064
"sub-10860809",22,"left","accuracy","left","left",1,1.06081283200183
"sub-10860809",23,"left","accuracy","left","left",1,1.80825600300159
"sub-10860809",24,"right","accuracy","right","right",1,0.803655903997424
"sub-10860809",25,"left","accuracy","left","left",1,0.966922868996335
"sub-10860809",26,"right","accuracy","right","right",1,1.05159479400027
"sub-10860809",27,"right","accuracy","right","right",1,1.616727765002
"sub-10860809",28,"left","accuracy","left","left",1,1.43493563099764
"sub-10860809",29,"left","accuracy","left","right",0,2.14053664499806
"sub-10860809",30,"right","accuracy","right","right",1,0.951477083995996
"sub-10860809",31,"left","accuracy","left","left",1,1.05772914900444
"sub-10860809",32,"right","accuracy","right","right",1,1.51000053300231
"sub-10860809",33,"left","accuracy","left","left",1,1.95065500000055
"sub-10860809",34,"right","accuracy","right","right",1,0.917576319996442
"sub-10860809",35,"right","accuracy","right","right",1,1.06784132499888
"sub-10860809",36,"left","accuracy","left","right",0,3.17876293700101
"sub-10860809",37,"right","accuracy","right","right",1,1.28941055099858
"sub-10860809",38,"left","accuracy","left","left",1,1.60337809899647
"sub-10860809",39,"left","accuracy","left","left",1,2.56528149699443
"sub-10860809",40,"right","accuracy","right","right",1,2.12619302099483
"sub-10860809",41,"left","accuracy","left","left",1,4.85380014099792
"sub-10860809",42,"right","accuracy","right","right",1,1.64469960299903
"sub-10860809",43,"right","accuracy","right","left",0,1.75659853399702
"sub-10860809",44,"left","accuracy","left","left",1,4.42172174200095
"sub-10860809",45,"left","accuracy","left","right",0,1.78284793800412
"sub-10860809",46,"right","accuracy","right","right",1,1.14523833600106
"sub-10860809",47,"left","accuracy","left","right",0,3.09132758499618
"sub-10860809",48,"right","accuracy","right","right",1,1.93670075500268
"sub-10860809",49,"right","accuracy","right","right",1,2.30875849699805
"sub-10860809",50,"left","accuracy","left","left",1,5.24119291399984
"sub-10860809",51,"left","accuracy","left","right",0,0.898972848000994
"sub-10860809",52,"right","accuracy","right","right",1,1.4994784790033
"sub-10860809",53,"left","accuracy","left","left",1,1.50766169699637
"sub-10860809",54,"right","accuracy","right","right",1,1.23646285299765
"sub-10860809",55,"right","accuracy","right","left",0,1.92882137899869
"sub-10860809",56,"left","accuracy","left","left",1,3.05237880799541
"sub-10860809",57,"right","accuracy","right","right",1,2.20380637799826
"sub-10860809",58,"left","accuracy","left","left",1,3.72884917500051
"sub-10860809",59,"left","accuracy","left","right",0,3.67742665299738
"sub-10860809",60,"right","accuracy","right","right",1,3.5514323929965
"sub-10860809",1,"left","speed","left","right",0,0.694261238000763
"sub-10860809",2,"right","speed","right","right",1,0.803268786999979
"sub-10860809",3,"left","speed","left","left",1,0.643589673003589
"sub-10860809",4,"right","speed","right","right",1,0.795944190998853
"sub-10860809",5,"left","speed","left","left",1,0.786498575995211
"sub-10860809",6,"right","speed","right","right",1,0.584215536000556
"sub-10860809",7,"right","speed","right","left",0,0.639945002003515
"sub-10860809",8,"left","speed","left","right",0,0.753386889999092
"sub-10860809",9,"left","speed","left","right",0,0.740440820001822
"sub-10860809",10,"right","speed","right","left",0,0.556895724999777
"sub-10860809",11,"right","speed","right","right",1,0.309148642001674
"sub-10860809",12,"left","speed","left","right",0,0.787051145998703
"sub-10860809",13,"right","speed","right","left",0,0.335367455001688
"sub-10860809",14,"left","speed","left","right",0,0.57172383699799
"sub-10860809",15,"left","speed","left","right",0,1.18578259299829
"sub-10860809",16,"right","speed","right","left",0,0.682452722001472
"sub-10860809",17,"left","speed","left","right",0,0.772706030998961
"sub-10860809",18,"right","speed","right","left",0,2.27659246399708
"sub-10860809",19,"left","speed","left","right",0,1.17759651399683
"sub-10860809",20,"right","speed","right","left",0,0.686807200996554
"sub-10860809",21,"right","speed","right","right",1,0.354183656003443
"sub-10860809",22,"left","speed","left","right",0,0.853158468002221
"sub-10860809",23,"left","speed","left","right",0,1.03982689799886
"sub-10860809",24,"right","speed","right","left",0,0.38441366400366
"sub-10860809",25,"right","speed","right","left",0,0.521126439998625
"sub-10860809",26,"left","speed","left","left",1,0.287815775001945
"sub-10860809",27,"right","speed","right","right",1,0.256413201001124
"sub-10860809",28,"left","speed","left","left",1,0.224056949002261
"sub-10860809",29,"left","speed","left","left",1,0.261954067995248
"sub-10860809",30,"right","speed","right","right",1,0.396872752004128
"sub-10860809",31,"left","speed","left","left",1,0.349669231996813
"sub-10860809",32,"right","speed","right","left",0,0.37772440900153
"sub-10860809",33,"right","speed","right","right",1,0.211164724998525
"sub-10860809",34,"left","speed","left","left",1,0.234422902001825
"sub-10860809",35,"left","speed","left","right",0,0.261550023999007
"sub-10860809",36,"right","speed","right","left",0,0.326244493997365
"sub-10860809",37,"right","speed","right","left",0,0.837022589003027
"sub-10860809",38,"left","speed","left","right",0,0.704262352002843
"sub-10860809",39,"left","speed","left","left",1,0.33761701000185
"sub-10860809",40,"right","speed","right","left",0,0.298622157999489
"sub-10860809",41,"left","speed","left","left",1,0.517989167994529
"sub-10860809",42,"right","speed","right","right",1,0.557374497002456
"sub-10860809",43,"right","speed","right","left",0,0.295002466998994
"sub-10860809",44,"left","speed","left","left",1,0.326121334997879
"sub-10860809",45,"right","speed","right","right",1,0.392774157997337
"sub-10860809",46,"left","speed","left","left",1,0.456199550004385
"sub-10860809",47,"right","speed","right","right",1,0.661668042004749
"sub-10860809",48,"left","speed","left","left",1,0.757770323994919
"sub-10860809",49,"left","speed","left","left",1,0.703365606997977
"sub-10860809",50,"right","speed","right","right",1,0.729813347003073
"sub-10860809",51,"right","speed","right","right",1,0.617221708998841
"sub-10860809",52,"left","speed","left","right",0,0.836279059003573
"sub-10860809",53,"left","speed","left","right",0,0.385729920999438
"sub-10860809",54,"right","speed","right","left",0,0.951867639996635
"sub-10860809",55,"left","speed","left","left",1,0.727839735998714
"sub-10860809",56,"right","speed","right","left",0,0.406996116995288
"sub-10860809",57,"left","speed","left","left",1,0.274566813001002
"sub-10860809",58,"right","speed","right","right",1,0.629006830997241
"sub-10860809",59,"left","speed","left","left",1,0.455778593001014
"sub-10860809",60,"right","speed","right","left",0,0.657144066994078
"sub-11628277",1,"right","accuracy","right","right",1,3.680167
"sub-11628277",2,"left","accuracy","left","left",1,1.0264591
"sub-11628277",3,"right","accuracy","right","right",1,1.2854781
"sub-11628277",4,"left","accuracy","left","left",1,0.7112234
"sub-11628277",5,"right","accuracy","right","right",1,1.0337011
"sub-11628277",6,"left","accuracy","left","right",0,1.2196115
"sub-11628277",7,"right","accuracy","right","left",0,1.6444131
"sub-11628277",8,"left","accuracy","left","left",1,3.0932285
"sub-11628277",9,"right","accuracy","right","right",1,2.2487876
"sub-11628277",10,"left","accuracy","left","left",1,1.9915688
"sub-11628277",11,"left","accuracy","left","left",1,4.0511805
"sub-11628277",12,"right","accuracy","right","right",1,0.8933429
"sub-11628277",13,"right","accuracy","right","left",0,1.105649
"sub-11628277",14,"left","accuracy","left","left",1,1.1495876
"sub-11628277",15,"right","accuracy","right","right",1,1.487856
"sub-11628277",16,"left","accuracy","left","right",0,3.6077191
"sub-11628277",17,"right","accuracy","right","right",1,1.6204943
"sub-11628277",18,"left","accuracy","left","left",1,1.1087898
"sub-11628277",19,"right","accuracy","right","right",1,3.4962902
"sub-11628277",20,"left","accuracy","left","left",1,1.5017093
"sub-11628277",21,"left","accuracy","left","left",1,2.8298861
"sub-11628277",22,"right","accuracy","right","right",1,1.9348677
"sub-11628277",23,"left","accuracy","left","left",1,5.7411789
"sub-11628277",24,"right","accuracy","right","right",1,1.4840689
"sub-11628277",25,"left","accuracy","left","left",1,1.0846361
"sub-11628277",26,"right","accuracy","right","right",1,3.0777554
"sub-11628277",27,"left","accuracy","left","left",1,1.0170408
"sub-11628277",28,"right","accuracy","right","right",1,1.2245491
"sub-11628277",29,"right","accuracy","right","left",0,3.6956521
"sub-11628277",30,"left","accuracy","left","right",0,5.4554217
"sub-11628277",31,"left","accuracy","left","left",1,0.9173241
"sub-11628277",32,"right","accuracy","right","right",1,1.7335862
"sub-11628277",33,"right","accuracy","right","left",0,4.1770572
"sub-11628277",34,"left","accuracy","left","right",0,5.0095595
"sub-11628277",35,"left","accuracy","left","right",0,3.9626425
"sub-11628277",36,"right","accuracy","right","left",0,3.9508
"sub-11628277",37,"left","accuracy","left","left",1,1.1404656
"sub-11628277",38,"right","accuracy","right","right",1,1.070691
"sub-11628277",39,"left","accuracy","left","left",1,2.8802584
"sub-11628277",40,"right","accuracy","right","left",0,1.7558077
"sub-11628277",41,"right","accuracy","right","right",1,1.3285837
"sub-11628277",42,"left","accuracy","left","left",1,1.044817
"sub-11628277",43,"right","accuracy","right","right",1,1.3551857
"sub-11628277",44,"left","accuracy","left","left",1,5.6902997
"sub-11628277",45,"left","accuracy","left","left",1,0.9931474
"sub-11628277",46,"right","accuracy","right","right",1,1.4974527
"sub-11628277",47,"right","accuracy","right","right",1,4.3002486
"sub-11628277",48,"left","accuracy","left","left",1,1.3513264
"sub-11628277",49,"right","accuracy","right","right",1,1.2002086
"sub-11628277",50,"left","accuracy","left","left",1,3.5687723
"sub-11628277",51,"right","accuracy","right","right",1,1.1120248
"sub-11628277",52,"left","accuracy","left","left",1,1.9590539
"sub-11628277",53,"right","accuracy","right","right",1,1.020616
"sub-11628277",54,"left","accuracy","left","right",0,5.09641
"sub-11628277",55,"left","accuracy","left","right",0,3.5837027
"sub-11628277",56,"right","accuracy","right","right",1,4.4554437
"sub-11628277",57,"right","accuracy","right","right",1,3.8115254
"sub-11628277",58,"left","accuracy","left","left",1,5.9530172
"sub-11628277",59,"right","accuracy","right","right",1,2.2017843
"sub-11628277",60,"left","accuracy","left","left",1,2.0979067
"sub-11628277",1,"right","speed","right","right",1,0.794206
"sub-11628277",2,"left","speed","left","right",0,5.5748641
"sub-11628277",3,"right","speed","right","right",1,1.4780996
"sub-11628277",4,"left","speed","left","left",1,1.3117095
"sub-11628277",5,"left","speed","left","right",0,1.5663547
"sub-11628277",6,"right","speed","right","left",0,0.9921315
"sub-11628277",7,"left","speed","left","left",1,2.359999
"sub-11628277",8,"right","speed","right","right",1,1.1513326
"sub-11628277",9,"right","speed","right","left",0,1.6118641
"sub-11628277",10,"left","speed","left","left",1,4.278706
"sub-11628277",11,"right","speed","right","right",1,2.2424526
"sub-11628277",12,"left","speed","left","right",0,5.510783
"sub-11628277",13,"left","speed","left","left",1,2.3594057
"sub-11628277",14,"right","speed","right","right",1,1.1844019
"sub-11628277",15,"right","speed","right","left",0,0.714794
"sub-11628277",16,"left","speed","left","right",0,1.8141587
"sub-11628277",17,"left","speed","left","left",1,1.0537019
"sub-11628277",18,"right","speed","right","right",1,0.9329111
"sub-11628277",19,"left","speed","left","left",1,3.5918366
"sub-11628277",20,"right","speed","right","right",1,1.7423749
"sub-11628277",21,"left","speed","left","left",1,2.6400041
"sub-11628277",22,"right","speed","right","right",1,2.752486
"sub-11628277",23,"left","speed","left","left",1,1.3408291
"sub-11628277",24,"right","speed","right","right",1,0.9389047
"sub-11628277",25,"left","speed","left","right",0,0.6731647
"sub-11628277",26,"right","speed","right","right",1,1.4219165
"sub-11628277",27,"right","speed","right","right",1,1.0593815
"sub-11628277",28,"left","speed","left","right",0,4.5147463
"sub-11628277",29,"left","speed","left","right",0,1.1183679
"sub-11628277",30,"right","speed","right","left",0,1.6300385
"sub-11628277",31,"right","speed","right","right",1,1.1620751
"sub-11628277",32,"left","speed","left","right",0,1.1840162
"sub-11628277",33,"right","speed","right","right",1,1.4821277
"sub-11628277",34,"left","speed","left","right",0,1.0445262
"sub-11628277",35,"left","speed","left","right",0,1.4520539
"sub-11628277",36,"right","speed","right","right",1,1.2083316
"sub-11628277",37,"right","speed","right","right",1,2.5051302
"sub-11628277",38,"left","speed","left","right",0,1.5176646
"sub-11628277",39,"left","speed","left","right",0,2.0526308
"sub-11628277",40,"right","speed","right","right",1,1.4548505
"sub-11628277",41,"left","speed","left","left",1,0.8215829
"sub-11628277",42,"right","speed","right","right",1,2.8203628
"sub-11628277",43,"right","speed","right","right",1,2.4395886
"sub-11628277",44,"left","speed","left","right",0,3.7629395
"sub-11628277",45,"right","speed","right","right",1,2.7047358
"sub-11628277",46,"left","speed","left","left",1,1.5501593
"sub-11628277",47,"left","speed","left","right",0,0.8171568
"sub-11628277",48,"right","speed","right","right",1,0.667924
"sub-11628277",49,"left","speed","left","left",1,0.9759425
"sub-11628277",50,"right","speed","right","right",1,0.7225501
"sub-11628277",51,"left","speed","left","left",1,0.8926473
"sub-11628277",52,"right","speed","right","right",1,0.9674759
"sub-11628277",53,"right","speed","right","right",1,1.3918121
"sub-11628277",54,"left","speed","left","left",1,1.2613321
"sub-11628277",55,"right","speed","right","right",1,0.7033153
"sub-11628277",56,"left","speed","left","left",1,1.0043226
"sub-11628277",57,"right","speed","right","right",1,1.0682872
"sub-11628277",58,"left","speed","left","right",0,1.8442503
"sub-11628277",59,"right","speed","right","right",1,1.0911247
"sub-11628277",60,"left","speed","left","left",1,1.3786796
"sub-11764630",1,"right","accuracy","right","right",1,3.11655079999764
"sub-11764630",2,"left","accuracy","left","right",0,3.40016720000131
"sub-11764630",3,"left","accuracy","left","left",1,4.19526509998832
"sub-11764630",4,"right","accuracy","right","left",0,3.26850219999324
"sub-11764630",5,"right","accuracy","right","right",1,1.1322833999875
"sub-11764630",6,"left","accuracy","left","right",0,0.758933900011471
"sub-11764630",7,"left","accuracy","left","left",1,0.680429100000765
"sub-11764630",8,"right","accuracy","right","right",1,0.583030299996608
"sub-11764630",9,"left","accuracy","left","left",1,0.386228300005314
"sub-11764630",10,"right","accuracy","right","right",1,0.71865809999872
"sub-11764630",11,"left","accuracy","left","right",0,2.65938129999267
"sub-11764630",12,"right","accuracy","right","right",1,0.773182700009784
"sub-11764630",13,"left","accuracy","left","left",1,0.351091300006374
"sub-11764630",14,"right","accuracy","right","right",1,0.462799899993115
"sub-11764630",15,"left","accuracy","left","left",1,0.678033499993035
"sub-11764630",16,"right","accuracy","right","right",1,0.365598999997019
"sub-11764630",17,"left","accuracy","left","right",0,0.424522000001161
"sub-11764630",18,"right","accuracy","right","right",1,1.26139520001016
"sub-11764630",19,"left","accuracy","left","right",0,0.556222400002298
"sub-11764630",20,"right","accuracy","right","right",1,6.94152360000589
"sub-11764630",21,"left","accuracy","left","right",0,0.658460699996795
"sub-11764630",22,"right","accuracy","right","left",0,0.913209299993468
"sub-11764630",23,"right","accuracy","right","left",0,0.484901600008016
"sub-11764630",24,"left","accuracy","left","right",0,0.616626100003486
"sub-11764630",25,"right","accuracy","right","left",0,0.581168999997317
"sub-11764630",26,"left","accuracy","left","right",0,0.579222100001061
"sub-11764630",27,"right","accuracy","right","right",1,0.363906700004009
"sub-11764630",28,"left","accuracy","left","left",1,0.412079100002302
"sub-11764630",29,"right","accuracy","right","right",1,0.527431399998022
"sub-11764630",30,"left","accuracy","left","right",0,0.401456699997652
"sub-11764630",31,"left","accuracy","left","right",0,0.286669900000561
"sub-11764630",32,"right","accuracy","right","right",1,0.404013699997449
"sub-11764630",33,"left","accuracy","left","left",1,0.325884799996857
"sub-11764630",34,"right","accuracy","right","left",0,0.353955700004008
"sub-11764630",35,"right","accuracy","right","right",1,0.628643200005172
"sub-11764630",36,"left","accuracy","left","right",0,0.385871800011955
"sub-11764630",37,"left","accuracy","left","right",0,0.347925999987638
"sub-11764630",38,"right","accuracy","right","right",1,0.458715000000666
"sub-11764630",39,"right","accuracy","right","right",1,0.379147700004978
"sub-11764630",40,"left","accuracy","left","left",1,0.36320490000071
"sub-11764630",41,"right","accuracy","right","left",0,0.388965200007078
"sub-11764630",42,"left","accuracy","left","left",1,0.382744800008368
"sub-11764630",43,"left","accuracy","left","right",0,1.92364049999742
"sub-11764630",44,"right","accuracy","right","right",1,0.40736409999954
"sub-11764630",45,"right","accuracy","right","left",0,0.421350100004929
"sub-11764630",46,"left","accuracy","left","right",0,0.419159500001115
"sub-11764630",47,"left","accuracy","left","right",0,0.383613899990451
"sub-11764630",48,"right","accuracy","right","right",1,0.356799600005616
"sub-11764630",49,"right","accuracy","right","left",0,0.337808000011137
"sub-11764630",50,"left","accuracy","left","right",0,0.375645400010399
"sub-11764630",51,"left","accuracy","left","right",0,0.319362599999295
"sub-11764630",52,"right","accuracy","right","right",1,0.572074400013662
"sub-11764630",53,"left","accuracy","left","left",1,0.480191199996625
"sub-11764630",54,"right","accuracy","right","right",1,1.41302549999091
"sub-11764630",55,"left","accuracy","left","right",0,0.389147099995171
"sub-11764630",56,"right","accuracy","right","right",1,0.446047699995688
"sub-11764630",57,"right","accuracy","right","right",1,0.338410999989719
"sub-11764630",58,"left","accuracy","left","left",1,0.450789800001075
"sub-11764630",59,"right","accuracy","right","right",1,0.321021699986886
"sub-11764630",60,"left","accuracy","left","left",1,0.434893300000113
"sub-11764630",1,"left","speed","left","right",0,0.445945200001006
"sub-11764630",2,"right","speed","right","left",0,0.323712200013688
"sub-11764630",3,"right","speed","right","right",1,0.266140300009283
"sub-11764630",4,"left","speed","left","right",0,0.331399500006228
"sub-11764630",5,"right","speed","right","right",1,0.234699900000123
"sub-11764630",6,"left","speed","left","right",0,0.782215600003838
"sub-11764630",7,"left","speed","left","left",1,0.459685900001205
"sub-11764630",8,"right","speed","right","right",1,0.308879000003799
"sub-11764630",9,"left","speed","left","left",1,0.419431100002839
"sub-11764630",10,"right","speed","right","left",0,0.305099900011555
"sub-11764630",11,"left","speed","left","right",0,0.288094899995485
"sub-11764630",12,"right","speed","right","right",1,0.330027700008941
"sub-11764630",13,"left","speed","left","right",0,0.618350799995824
"sub-11764630",14,"right","speed","right","right",1,0.307217300010961
"sub-11764630",15,"left","speed","left","right",0,0.416538899997249
"sub-11764630",16,"right","speed","right","left",0,0.332678899998427
"sub-11764630",17,"left","speed","left","right",0,0.303850199998124
"sub-11764630",18,"right","speed","right","left",0,0.349039400010952
"sub-11764630",19,"right","speed","right","right",1,0.260384699999122
"sub-11764630",20,"left","speed","left","left",1,0.445453199994517
"sub-11764630",21,"left","speed","left","right",0,0.24759990000166
"sub-11764630",22,"right","speed","right","left",0,0.316401599993696
"sub-11764630",23,"right","speed","right","right",1,0.342328200000338
"sub-11764630",24,"left","speed","left","right",0,0.324211200000718
"sub-11764630",25,"left","speed","left","left",1,0.269669700006489
"sub-11764630",26,"right","speed","right","right",1,0.350696999987122
"sub-11764630",27,"left","speed","left","left",1,0.33160420000786
"sub-11764630",28,"right","speed","right","left",0,0.308040999996592
"sub-11764630",29,"left","speed","left","right",0,0.474022199996398
"sub-11764630",30,"right","speed","right","right",1,0.294646800000919
"sub-11764630",31,"right","speed","right","right",1,0.409332299997914
"sub-11764630",32,"left","speed","left","right",0,0.446615999986534
"sub-11764630",33,"right","speed","right","right",1,0.323575500005973
"sub-11764630",34,"left","speed","left","left",1,0.355610900005559
"sub-11764630",35,"left","speed","left","right",0,0.3472982999956
"sub-11764630",36,"right","speed","right","left",0,0.3292153999937
"sub-11764630",37,"left","speed","left","left",1,0.251886600002763
"sub-11764630",38,"right","speed","right","left",0,0.297832700001891
"sub-11764630",39,"right","speed","right","left",0,0.409014300006675
"sub-11764630",40,"left","speed","left","right",0,0.289873200003058
"sub-11764630",41,"left","speed","left","right",0,0.318331800008309
"sub-11764630",42,"right","speed","right","right",1,0.406778899996425
"sub-11764630",43,"right","speed","right","right",1,0.302858499999274
"sub-11764630",44,"left","speed","left","right",0,0.298734100011643
"sub-11764630",45,"right","speed","right","right",1,0.232349700003397
"sub-11764630",46,"left","speed","left","left",1,0.331878799988772
"sub-11764630",47,"right","speed","right","right",1,0.0794065999943996
"sub-11764630",48,"left","speed","left","left",1,0.359129700009362
"sub-11764630",49,"left","speed","left","right",0,0.553516500003752
"sub-11764630",50,"right","speed","right","left",0,0.524604999998701
"sub-11764630",51,"right","speed","right","right",1,0.821804400009569
"sub-11764630",52,"left","speed","left","right",0,0.331888100001379
"sub-11764630",53,"right","speed","right","right",1,0.309401499995147
"sub-11764630",54,"left","speed","left","left",1,0.334940700005973
"sub-11764630",55,"left","speed","left","right",0,0.4172252999997
"sub-11764630",56,"right","speed","right","right",1,0.39189179999812
"sub-11764630",57,"left","speed","left","left",1,0.359560699987924
"sub-11764630",58,"right","speed","right","left",0,0.315838399998029
"sub-11764630",59,"left","speed","left","right",0,0.265639999997802
"sub-11764630",60,"right","speed","right","left",0,0.204918200004613
"sub-11874807",1,"right","speed","right","right",1,0.471735599916428
"sub-11874807",2,"left","speed","left","left",1,0.519824099959806
"sub-11874807",3,"right","speed","right","right",1,0.368770899949595
"sub-11874807",4,"left","speed","left","right",0,0.497735399985686
"sub-11874807",5,"right","speed","right","right",1,0.700161899905652
"sub-11874807",6,"left","speed","left","left",1,0.720832499908283
"sub-11874807",7,"right","speed","right","right",1,0.550558399874717
"sub-11874807",8,"left","speed","left","left",1,0.711805399972945
"sub-11874807",9,"right","speed","right","right",1,0.54673959990032
"sub-11874807",10,"left","speed","left","left",1,0.878886200021952
"sub-11874807",11,"right","speed","right","right",1,0.437847000081092
"sub-11874807",12,"left","speed","left","left",1,0.480983600020409
"sub-11874807",13,"left","speed","left","right",0,0.418049999978393
"sub-11874807",14,"right","speed","right","right",1,0.516609800048172
"sub-11874807",15,"right","speed","right","right",1,0.702072700019926
"sub-11874807",16,"left","speed","left","left",1,0.998168600024656
"sub-11874807",17,"right","speed","right","right",1,0.690351000055671
"sub-11874807",18,"left","speed","left","right",0,0.681552599882707
"sub-11874807",19,"left","speed","left","right",0,13.9497084000614
"sub-11874807",20,"right","speed","right","right",1,1.28178520011716
"sub-11874807",21,"right","speed","right","right",1,1.22063519991934
"sub-11874807",22,"left","speed","left","left",1,0.759151600068435
"sub-11874807",23,"left","speed","left","left",1,1.82257459987886
"sub-11874807",24,"right","speed","right","right",1,0.660388800082728
"sub-11874807",25,"left","speed","left","left",1,0.51630700007081
"sub-11874807",26,"right","speed","right","right",1,0.660196100128815
"sub-11874807",27,"right","speed","right","left",0,1.04879259993322
"sub-11874807",28,"left","speed","left","left",1,1.23827929981053
"sub-11874807",29,"left","speed","left","left",1,1.18105190014467
"sub-11874807",30,"right","speed","right","right",1,0.498434500070289
"sub-11874807",31,"left","speed","left","left",1,0.570323699852452
"sub-11874807",32,"right","speed","right","right",1,0.578808299964294
"sub-11874807",33,"right","speed","right","right",1,0.798594400053844
"sub-11874807",34,"left","speed","left","left",1,0.520233600167558
"sub-11874807",35,"right","speed","right","right",1,0.609021999873221
"sub-11874807",36,"left","speed","left","left",1,0.934469900093973
"sub-11874807",37,"left","speed","left","right",0,1.5339673999697
"sub-11874807",38,"right","speed","right","right",1,0.740622299956158
"sub-11874807",39,"left","speed","left","left",1,0.663352699950337
"sub-11874807",40,"right","speed","right","right",1,0.958591799950227
"sub-11874807",41,"left","speed","left","left",1,0.774401299888268
"sub-11874807",42,"right","speed","right","right",1,1.50284299999475
"sub-11874807",43,"right","speed","right","left",0,1.11854680022225
"sub-11874807",44,"left","speed","left","left",1,1.25534370006062
"sub-11874807",45,"right","speed","right","right",1,0.600543099921197
"sub-11874807",46,"left","speed","left","left",1,0.7520463000983
"sub-11874807",47,"right","speed","right","right",1,0.737570299999788
"sub-11874807",48,"left","speed","left","left",1,0.789049400016665
"sub-11874807",49,"left","speed","left","left",1,2.08079729997553
"sub-11874807",50,"right","speed","right","right",1,0.888510500080884
"sub-11874807",51,"left","speed","left","left",1,0.660785699961707
"sub-11874807",52,"right","speed","right","right",1,0.695123299956322
"sub-11874807",53,"right","speed","right","right",1,1.30777509999461
"sub-11874807",54,"left","speed","left","left",1,0.692141499835998
"sub-11874807",55,"left","speed","left","right",0,0.643605800112709
"sub-11874807",56,"right","speed","right","right",1,0.926601500017568
"sub-11874807",57,"right","speed","right","right",1,0.830607299925759
"sub-11874807",58,"left","speed","left","left",1,0.451798899797723
"sub-11874807",59,"right","speed","right","right",1,0.627200099872425
"sub-11874807",60,"left","speed","left","left",1,1.07569000008516
"sub-11874807",1,"right","accuracy","right","right",1,0.999270599801093
"sub-11874807",2,"left","accuracy","left","left",1,0.740610900102183
"sub-11874807",3,"left","accuracy","left","left",1,4.04397649993189
"sub-11874807",4,"right","accuracy","right","right",1,0.851947099901736
"sub-11874807",5,"left","accuracy","left","left",1,1.04785159998573
"sub-11874807",6,"right","accuracy","right","right",1,1.14959160005674
"sub-11874807",7,"right","accuracy","right","right",1,1.08127880003303
"sub-11874807",8,"left","accuracy","left","left",1,0.739083899883553
"sub-11874807",9,"right","accuracy","right","right",1,0.720713300164789
"sub-11874807",10,"left","accuracy","left","left",1,1.459551300155
"sub-11874807",11,"right","accuracy","right","right",1,0.65356280002743
"sub-11874807",12,"left","accuracy","left","left",1,3.72998580010608
"sub-11874807",13,"left","accuracy","left","right",0,2.61637019994669
"sub-11874807",14,"right","accuracy","right","right",1,0.680902099935338
"sub-11874807",15,"left","accuracy","left","left",1,0.738723800051957
"sub-11874807",16,"right","accuracy","right","right",1,0.951578200096264
"sub-11874807",17,"right","accuracy","right","right",1,0.956367000006139
"sub-11874807",18,"left","accuracy","left","left",1,2.57169619994238
"sub-11874807",19,"left","accuracy","left","left",1,3.15953029994853
"sub-11874807",20,"right","accuracy","right","right",1,0.944088899996132
"sub-11874807",21,"right","accuracy","right","left",0,0.83526030019857
"sub-11874807",22,"left","accuracy","left","left",1,3.16605859994888
"sub-11874807",23,"left","accuracy","left","right",0,0.819154200144112
"sub-11874807",24,"right","accuracy","right","right",1,1.27858840022236
"sub-11874807",25,"right","accuracy","right","right",1,1.45632539992221
"sub-11874807",26,"left","accuracy","left","left",1,0.921065300004557
"sub-11874807",27,"left","accuracy","left","left",1,0.879201099975035
"sub-11874807",28,"right","accuracy","right","right",1,0.858029600000009
"sub-11874807",29,"right","accuracy","right","right",1,0.8324694999028
"sub-11874807",30,"left","accuracy","left","left",1,1.7412288999185
"sub-11874807",31,"left","accuracy","left","left",1,5.3220660998486
"sub-11874807",32,"right","accuracy","right","right",1,3.01724760001525
"sub-11874807",33,"left","accuracy","left","left",1,1.30077470000833
"sub-11874807",34,"right","accuracy","right","right",1,0.837411399930716
"sub-11874807",35,"right","accuracy","right","right",1,1.95803510001861
"sub-11874807",36,"left","accuracy","left","left",1,1.07253120001405
"sub-11874807",37,"left","accuracy","left","left",1,3.18173000006936
"sub-11874807",38,"right","accuracy","right","right",1,1.3984345998615
"sub-11874807",39,"right","accuracy","right","right",1,3.25936189992353
"sub-11874807",40,"left","accuracy","left","left",1,1.04295759997331
"sub-11874807",41,"right","accuracy","right","right",1,0.825551700079814
"sub-11874807",42,"left","accuracy","left","left",1,0.773122899932787
"sub-11874807",43,"left","accuracy","left","right",0,0.601860499940813
"sub-11874807",44,"right","accuracy","right","right",1,1.79793790006079
"sub-11874807",45,"right","accuracy","right","right",1,1.0376408000011
"sub-11874807",46,"left","accuracy","left","left",1,0.769084800034761
"sub-11874807",47,"right","accuracy","right","right",1,0.857474899850786
"sub-11874807",48,"left","accuracy","left","left",1,0.95192339993082
"sub-11874807",49,"right","accuracy","right","right",1,1.28698209999129
"sub-11874807",50,"left","accuracy","left","left",1,0.928539900109172
"sub-11874807",51,"left","accuracy","left","left",1,1.39696479984559
"sub-11874807",52,"right","accuracy","right","right",1,1.53836819995195
"sub-11874807",53,"left","accuracy","left","left",1,1.25089900009334
"sub-11874807",54,"right","accuracy","right","right",1,0.961993900127709
"sub-11874807",55,"left","accuracy","left","left",1,2.61683099996299
"sub-11874807",56,"right","accuracy","right","right",1,1.240964199882
"sub-11874807",57,"right","accuracy","right","right",1,4.40170689998195
"sub-11874807",58,"left","accuracy","left","left",1,1.44132720003836
"sub-11874807",59,"left","accuracy","left","left",1,2.73307069996372
"sub-11874807",60,"right","accuracy","right","right",1,1.5497862000484
"sub-12063050",1,"left","accuracy","left","left",1,1.2891712
"sub-12063050",2,"right","accuracy","right","right",1,1.1805913
"sub-12063050",3,"right","accuracy","right","left",0,2.0461606
"sub-12063050",4,"left","accuracy","left","right",0,2.1460709
"sub-12063050",5,"left","accuracy","left","left",1,1.0498363
"sub-12063050",6,"right","accuracy","right","right",1,1.2829043
"sub-12063050",7,"right","accuracy","right","left",0,2.7887984
"sub-12063050",8,"left","accuracy","left","left",1,1.0517192
"sub-12063050",9,"right","accuracy","right","right",1,1.1521859
"sub-12063050",10,"left","accuracy","left","left",1,1.141387
"sub-12063050",11,"left","accuracy","left","left",1,1.3059279
"sub-12063050",12,"right","accuracy","right","right",1,1.0884553
"sub-12063050",13,"right","accuracy","right","right",1,1.1538188
"sub-12063050",14,"left","accuracy","left","right",0,1.6047337
"sub-12063050",15,"left","accuracy","left","left",1,1.3843018
"sub-12063050",16,"right","accuracy","right","right",1,1.9005634
"sub-12063050",17,"left","accuracy","left","left",1,1.2608452
"sub-12063050",18,"right","accuracy","right","right",1,1.2719413
"sub-12063050",19,"right","accuracy","right","right",1,1.6492854
"sub-12063050",20,"left","accuracy","left","left",1,1.3348473
"sub-12063050",21,"left","accuracy","left","left",1,1.8296552
"sub-12063050",22,"right","accuracy","right","right",1,1.7196315
"sub-12063050",23,"right","accuracy","right","right",1,1.0042487
"sub-12063050",24,"left","accuracy","left","left",1,1.2166666
"sub-12063050",25,"left","accuracy","left","left",1,1.4334838
"sub-12063050",26,"right","accuracy","right","right",1,1.0754781
"sub-12063050",27,"right","accuracy","right","right",1,3.6266576
"sub-12063050",28,"left","accuracy","left","left",1,0.8727804
"sub-12063050",29,"right","accuracy","right","right",1,1.6154254
"sub-12063050",30,"left","accuracy","left","left",1,1.0525534
"sub-12063050",31,"right","accuracy","right","right",1,0.9619691
"sub-12063050",32,"left","accuracy","left","left",1,0.7989936
"sub-12063050",33,"left","accuracy","left","left",1,3.7493781
"sub-12063050",34,"right","accuracy","right","right",1,1.0504916
"sub-12063050",35,"right","accuracy","right","right",1,1.2999817
"sub-12063050",36,"left","accuracy","left","left",1,1.1640164
"sub-12063050",37,"right","accuracy","right","right",1,1.9237026
"sub-12063050",38,"left","accuracy","left","left",1,0.9810827
"sub-12063050",39,"right","accuracy","right","right",1,0.7715505
"sub-12063050",40,"left","accuracy","left","left",1,0.9374912
"sub-12063050",41,"right","accuracy","right","right",1,1.2130639
"sub-12063050",42,"left","accuracy","left","left",1,3.6103828
"sub-12063050",43,"left","accuracy","left","right",0,0.955539
"sub-12063050",44,"right","accuracy","right","right",1,2.8395939
"sub-12063050",45,"right","accuracy","right","right",1,1.1885499
"sub-12063050",46,"left","accuracy","left","left",1,1.1929914
"sub-12063050",47,"right","accuracy","right","right",1,2.7665995
"sub-12063050",48,"left","accuracy","left","left",1,0.9882212
"sub-12063050",49,"right","accuracy","right","right",1,0.9312027
"sub-12063050",50,"left","accuracy","left","left",1,0.8233495
"sub-12063050",51,"left","accuracy","left","left",1,0.9969572
"sub-12063050",52,"right","accuracy","right","right",1,1.0134951
"sub-12063050",53,"left","accuracy","left","left",1,0.8744302
"sub-12063050",54,"right","accuracy","right","right",1,1.0012663
"sub-12063050",55,"right","accuracy","right","right",1,1.6043541
"sub-12063050",56,"left","accuracy","left","left",1,0.7898306
"sub-12063050",57,"right","accuracy","right","right",1,0.8723316
"sub-12063050",58,"left","accuracy","left","left",1,1.1665947
"sub-12063050",59,"left","accuracy","left","right",0,1.8628693
"sub-12063050",60,"right","accuracy","right","left",0,1.625398
"sub-12063050",1,"left","speed","left","left",1,0.6398607
"sub-12063050",2,"right","speed","right","right",1,0.5362247
"sub-12063050",3,"right","speed","right","right",1,1.140024
"sub-12063050",4,"left","speed","left","left",1,0.7167345
"sub-12063050",5,"right","speed","right","right",1,0.759649
"sub-12063050",6,"left","speed","left","left",1,0.8180327
"sub-12063050",7,"right","speed","right","right",1,0.8913708
"sub-12063050",8,"left","speed","left","left",1,0.6507665
"sub-12063050",9,"right","speed","right","right",1,0.7793835
"sub-12063050",10,"left","speed","left","left",1,0.8556813
"sub-12063050",11,"left","speed","left","right",0,1.4107532
"sub-12063050",12,"right","speed","right","right",1,0.6497961
"sub-12063050",13,"right","speed","right","right",1,0.7081858
"sub-12063050",14,"left","speed","left","left",1,0.7308044
"sub-12063050",15,"left","speed","left","left",1,1.0755057
"sub-12063050",16,"right","speed","right","right",1,1.0700166
"sub-12063050",17,"left","speed","left","left",1,1.1710121
"sub-12063050",18,"right","speed","right","right",1,1.0363801
"sub-12063050",19,"left","speed","left","left",1,1.3630434
"sub-12063050",20,"right","speed","right","right",1,1.9384432
"sub-12063050",21,"right","speed","right","right",1,1.9153708
"sub-12063050",22,"left","speed","left","left",1,0.7692213
"sub-12063050",23,"left","speed","left","right",0,0.8583879
"sub-12063050",24,"right","speed","right","right",1,1.0488015
"sub-12063050",25,"left","speed","left","right",0,1.4279879
"sub-12063050",26,"right","speed","right","right",1,0.9125823
"sub-12063050",27,"left","speed","left","left",1,0.9418356
"sub-12063050",28,"right","speed","right","right",1,1.4225523
"sub-12063050",29,"left","speed","left","left",1,0.8801194
"sub-12063050",30,"right","speed","right","right",1,0.8036521
"sub-12063050",31,"left","speed","left","left",1,1.1810448
"sub-12063050",32,"right","speed","right","right",1,1.0594731
"sub-12063050",33,"left","speed","left","left",1,0.8449924
"sub-12063050",34,"right","speed","right","right",1,0.6682151
"sub-12063050",35,"left","speed","left","left",1,0.8200986
"sub-12063050",36,"right","speed","right","right",1,0.6807212
"sub-12063050",37,"right","speed","right","right",1,1.1286369
"sub-12063050",38,"left","speed","left","left",1,1.0925036
"sub-12063050",39,"right","speed","right","right",1,0.7875816
"sub-12063050",40,"left","speed","left","left",1,0.8259523
"sub-12063050",41,"left","speed","left","right",0,1.6460527
"sub-12063050",42,"right","speed","right","right",1,0.9671127
"sub-12063050",43,"left","speed","left","left",1,0.8561725
"sub-12063050",44,"right","speed","right","right",1,0.897906
"sub-12063050",45,"right","speed","right","right",1,1.2814385
"sub-12063050",46,"left","speed","left","left",1,0.7841355
"sub-12063050",47,"right","speed","right","right",1,1.0467292
"sub-12063050",48,"left","speed","left","left",1,1.1407483
"sub-12063050",49,"right","speed","right","right",1,1.6087843
"sub-12063050",50,"left","speed","left","left",1,0.9539118
"sub-12063050",51,"left","speed","left","right",0,1.8750491
"sub-12063050",52,"right","speed","right","right",1,1.4725741
"sub-12063050",53,"left","speed","left","left",1,0.6759725
"sub-12063050",54,"right","speed","right","right",1,0.6769076
"sub-12063050",55,"left","speed","left","left",1,0.8288684
"sub-12063050",56,"right","speed","right","right",1,1.0851275
"sub-12063050",57,"right","speed","right","right",1,1.1378258
"sub-12063050",58,"left","speed","left","left",1,0.7827959
"sub-12063050",59,"left","speed","left","left",1,0.8283677
"sub-12063050",60,"right","speed","right","right",1,0.9767649
"sub-12604325",1,"left","speed","left","left",1,0.764283323
"sub-12604325",2,"right","speed","right","right",1,0.949315006
"sub-12604325",3,"left","speed","left","left",1,1.13974393
"sub-12604325",4,"right","speed","right","left",0,1.125634854
"sub-12604325",5,"right","speed","right","left",0,1.676507588
"sub-12604325",6,"left","speed","left","right",0,1.219348768
"sub-12604325",7,"right","speed","right","right",1,0.965363849
"sub-12604325",8,"left","speed","left","left",1,0.696690687
"sub-12604325",9,"left","speed","left","right",0,1.170307139
"sub-12604325",10,"right","speed","right","left",0,1.91055276
"sub-12604325",11,"right","speed","right","right",1,0.661712507
"sub-12604325",12,"left","speed","left","left",1,1.271678298
"sub-12604325",13,"right","speed","right","right",1,0.600417304
"sub-12604325",14,"left","speed","left","left",1,0.676952487
"sub-12604325",15,"right","speed","right","right",1,1.242625062
"sub-12604325",16,"left","speed","left","left",1,0.954145113
"sub-12604325",17,"right","speed","right","right",1,0.844834069
"sub-12604325",18,"left","speed","left","right",0,1.065621087
"sub-12604325",19,"right","speed","right","right",1,0.892442684
"sub-12604325",20,"left","speed","left","left",1,1.01387446
"sub-12604325",21,"left","speed","left","left",1,0.855071872
"sub-12604325",22,"right","speed","right","right",1,0.711642733
"sub-12604325",23,"left","speed","left","left",1,0.702716511
"sub-12604325",24,"right","speed","right","right",1,0.785736028
"sub-12604325",25,"right","speed","right","left",0,0.762116056
"sub-12604325",26,"left","speed","left","left",1,0.662666301
"sub-12604325",27,"right","speed","right","right",1,1.021856295
"sub-12604325",28,"left","speed","left","left",1,0.59628275
"sub-12604325",29,"left","speed","left","right",0,0.748669528
"sub-12604325",30,"right","speed","right","right",1,0.749257584
"sub-12604325",31,"right","speed","right","left",0,0.623275746
"sub-12604325",32,"left","speed","left","right",0,0.752979136
"sub-12604325",33,"left","speed","left","left",1,1.541196482
"sub-12604325",34,"right","speed","right","right",1,0.765698935
"sub-12604325",35,"left","speed","left","left",1,1.012153077
"sub-12604325",36,"right","speed","right","left",0,1.425675636
"sub-12604325",37,"left","speed","left","left",1,2.162123418
"sub-12604325",38,"right","speed","right","right",1,0.926131936
"sub-12604325",39,"right","speed","right","right",1,0.715409486
"sub-12604325",40,"left","speed","left","left",1,1.434743192
"sub-12604325",41,"right","speed","right","right",1,0.81675732
"sub-12604325",42,"left","speed","left","left",1,0.967983147
"sub-12604325",43,"right","speed","right","right",1,0.699373536
"sub-12604325",44,"left","speed","left","left",1,2.319180818
"sub-12604325",45,"right","speed","right","right",1,0.751696989
"sub-12604325",46,"left","speed","left","right",0,1.671796631
"sub-12604325",47,"right","speed","right","right",1,0.967237169
"sub-12604325",48,"left","speed","left","left",1,1.3598316
"sub-12604325",49,"left","speed","left","right",0,1.071900293
"sub-12604325",50,"right","speed","right","right",1,1.317301119
"sub-12604325",51,"left","speed","left","right",0,1.229545416
"sub-12604325",52,"right","speed","right","left",0,1.838750463
"sub-12604325",53,"right","speed","right","right",1,1.056183569
"sub-12604325",54,"left","speed","left","right",0,1.439230732
"sub-12604325",55,"right","speed","right","left",0,1.96674834
"sub-12604325",56,"left","speed","left","left",1,1.679615726
"sub-12604325",57,"left","speed","left","right",0,1.293923719
"sub-12604325",58,"right","speed","right","right",1,2.518096097
"sub-12604325",59,"right","speed","right","right",1,1.426044888
"sub-12604325",60,"left","speed","left","left",1,0.774572227
"sub-12604325",1,"left","accuracy","left","left",1,1.201743481
"sub-12604325",2,"right","accuracy","right","right",1,1.143869566
"sub-12604325",3,"left","accuracy","left","right",0,1.541275709
"sub-12604325",4,"right","accuracy","right","right",1,3.047831217
"sub-12604325",5,"right","accuracy","right","right",1,1.447154589
"sub-12604325",6,"left","accuracy","left","left",1,2.754932504
"sub-12604325",7,"left","accuracy","left","right",0,1.19192093
"sub-12604325",8,"right","accuracy","right","left",0,3.564661079
"sub-12604325",9,"left","accuracy","left","right",0,1.280698949
"sub-12604325",10,"right","accuracy","right","right",1,4.580377788
"sub-12604325",11,"left","accuracy","left","right",0,7.546674068
"sub-12604325",12,"right","accuracy","right","left",0,0.958723151
"sub-12604325",13,"right","accuracy","right","right",1,0.841065269
"sub-12604325",14,"left","accuracy","left","left",1,0.884687666
"sub-12604325",15,"left","accuracy","left","right",0,0.687840243
"sub-12604325",16,"right","accuracy","right","right",1,1.875727973
"sub-12604325",17,"right","accuracy","right","right",1,2.608926427
"sub-12604325",18,"left","accuracy","left","left",1,0.912566426
"sub-12604325",19,"left","accuracy","left","right",0,0.892762738
"sub-12604325",20,"right","accuracy","right","right",1,1.074688853
"sub-12604325",21,"right","accuracy","right","right",1,0.792262355
"sub-12604325",22,"left","accuracy","left","right",0,0.972509653
"sub-12604325",23,"left","accuracy","left","left",1,0.61562479
"sub-12604325",24,"right","accuracy","right","right",1,0.837657564
"sub-12604325",25,"right","accuracy","right","left",0,0.769077683
"sub-12604325",26,"left","accuracy","left","right",0,1.073348745
"sub-12604325",27,"left","accuracy","left","right",0,1.095609609
"sub-12604325",28,"right","accuracy","right","left",0,1.398798855
"sub-12604325",29,"left","accuracy","left","right",0,1.096656985
"sub-12604325",30,"right","accuracy","right","right",1,1.197107066
"sub-12604325",31,"left","accuracy","left","right",0,1.938494187
"sub-12604325",32,"right","accuracy","right","right",1,1.387863734
"sub-12604325",33,"left","accuracy","left","left",1,1.087752596
"sub-12604325",34,"right","accuracy","right","right",1,1.510830553
"sub-12604325",35,"left","accuracy","left","left",1,2.379871175
"sub-12604325",36,"right","accuracy","right","right",1,1.683070384
"sub-12604325",37,"right","accuracy","right","right",1,1.861888141
"sub-12604325",38,"left","accuracy","left","left",1,0.968537336
"sub-12604325",39,"left","accuracy","left","right",0,1.176552082
"sub-12604325",40,"right","accuracy","right","left",0,1.107728619
"sub-12604325",41,"right","accuracy","right","right",1,1.135478736
"sub-12604325",42,"left","accuracy","left","left",1,0.80986999
"sub-12604325",43,"left","accuracy","left","left",1,1.299904604
"sub-12604325",44,"right","accuracy","right","right",1,1.595808177
"sub-12604325",45,"left","accuracy","left","left",1,1.305147036
"sub-12604325",46,"right","accuracy","right","right",1,1.225929753
"sub-12604325",47,"right","accuracy","right","left",0,1.702386569
"sub-12604325",48,"left","accuracy","left","right",0,1.15763251
"sub-12604325",49,"left","accuracy","left","left",1,0.70184927
"sub-12604325",50,"right","accuracy","right","left",0,1.666066583
"sub-12604325",51,"left","accuracy","left","left",1,1.026359278
"sub-12604325",52,"right","accuracy","right","left",0,1.286781114
"sub-12604325",53,"left","accuracy","left","left",1,1.249841495
"sub-12604325",54,"right","accuracy","right","right",1,0.756076141
"sub-12604325",55,"right","accuracy","right","right",1,1.271078879
"sub-12604325",56,"left","accuracy","left","left",1,0.678923942
"sub-12604325",57,"left","accuracy","left","right",0,0.833416413
"sub-12604325",58,"right","accuracy","right","left",0,0.591326332
"sub-12604325",59,"left","accuracy","left","left",1,0.842193204
"sub-12604325",60,"right","accuracy","right","right",1,0.747349489
"sub-13237045",1,"left","speed","left","left",1,0.5996426
"sub-13237045",2,"right","speed","right","right",1,0.7078111
"sub-13237045",3,"right","speed","right","left",0,2.3819933
"sub-13237045",4,"left","speed","left","left",1,1.0561783
"sub-13237045",5,"left","speed","left","left",1,1.3604974
"sub-13237045",6,"right","speed","right","right",1,0.6154584
"sub-13237045",7,"right","speed","right","right",1,3.1992825
"sub-13237045",8,"left","speed","left","left",1,0.6009341
"sub-13237045",9,"left","speed","left","left",1,0.657285
"sub-13237045",10,"right","speed","right","right",1,2.8697937
"sub-13237045",11,"right","speed","right","left",0,0.8261205
"sub-13237045",12,"left","speed","left","left",1,0.5925004
"sub-13237045",13,"right","speed","right","right",1,0.535966
"sub-13237045",14,"left","speed","left","right",0,0.6217284
"sub-13237045",15,"right","speed","right","left",0,0.9367661
"sub-13237045",16,"left","speed","left","left",1,2.9080603
"sub-13237045",17,"right","speed","right","right",1,0.7435103
"sub-13237045",18,"left","speed","left","left",1,0.7858354
"sub-13237045",19,"right","speed","right","right",1,0.6571564
"sub-13237045",20,"left","speed","left","left",1,0.8744794
"sub-13237045",21,"left","speed","left","right",0,0.7388809
"sub-13237045",22,"right","speed","right","right",1,2.8324895
"sub-13237045",23,"left","speed","left","left",1,2.5467439
"sub-13237045",24,"right","speed","right","right",1,0.479297
"sub-13237045",25,"left","speed","left","left",1,0.5596643
"sub-13237045",26,"right","speed","right","right",1,0.5333335
"sub-13237045",27,"right","speed","right","left",0,1.069491
"sub-13237045",28,"left","speed","left","left",1,0.7096436
"sub-13237045",29,"right","speed","right","right",1,1.1791686
"sub-13237045",30,"left","speed","left","left",1,1.7357778
"sub-13237045",31,"right","speed","right","left",0,3.815378
"sub-13237045",32,"left","speed","left","left",1,0.6435439
"sub-13237045",33,"right","speed","right","left",0,1.1800949
"sub-13237045",34,"left","speed","left","left",1,0.5891402
"sub-13237045",35,"right","speed","right","right",1,0.9528063
"sub-13237045",36,"left","speed","left","left",1,1.1947211
"sub-13237045",37,"right","speed","right","left",0,0.9730458
"sub-13237045",38,"left","speed","left","left",1,0.5379533
"sub-13237045",39,"left","speed","left","right",0,0.9592871
"sub-13237045",40,"right","speed","right","right",1,1.0651065
"sub-13237045",41,"right","speed","right","right",1,2.0743341
"sub-13237045",42,"left","speed","left","left",1,0.6258983
"sub-13237045",43,"right","speed","right","right",1,2.7283368
"sub-13237045",44,"left","speed","left","left",1,0.919498
"sub-13237045",45,"left","speed","left","left",1,1.858085
"sub-13237045",46,"right","speed","right","left",0,1.0195771
"sub-13237045",47,"right","speed","right","right",1,0.6582082
"sub-13237045",48,"left","speed","left","left",1,0.6531695
"sub-13237045",49,"left","speed","left","left",1,0.734009
"sub-13237045",50,"right","speed","right","right",1,0.974222
"sub-13237045",51,"right","speed","right","right",1,0.9502003
"sub-13237045",52,"left","speed","left","left",1,0.9139916
"sub-13237045",53,"right","speed","right","right",1,0.7638428
"sub-13237045",54,"left","speed","left","left",1,0.6868834
"sub-13237045",55,"left","speed","left","left",1,0.6317554
"sub-13237045",56,"right","speed","right","right",1,0.6069407
"sub-13237045",57,"right","speed","right","right",1,1.6639048
"sub-13237045",58,"left","speed","left","left",1,0.5114568
"sub-13237045",59,"right","speed","right","right",1,0.5031701
"sub-13237045",60,"left","speed","left","left",1,0.5730481
"sub-13237045",1,"right","accuracy","right","right",1,0.5077637
"sub-13237045",2,"left","accuracy","left","left",1,0.5270143
"sub-13237045",3,"right","accuracy","right","right",1,2.0731491
"sub-13237045",4,"left","accuracy","left","left",1,0.5754474
"sub-13237045",5,"right","accuracy","right","right",1,0.6486814
"sub-13237045",6,"left","accuracy","left","left",1,1.3029678
"sub-13237045",7,"left","accuracy","left","left",1,0.6120433
"sub-13237045",8,"right","accuracy","right","right",1,0.9257206
"sub-13237045",9,"left","accuracy","left","left",1,0.5800907
"sub-13237045",10,"right","accuracy","right","right",1,0.8746521
"sub-13237045",11,"right","accuracy","right","left",0,2.1897713
"sub-13237045",12,"left","accuracy","left","left",1,0.9895081
"sub-13237045",13,"right","accuracy","right","right",1,0.7886808
"sub-13237045",14,"left","accuracy","left","left",1,0.8476683
"sub-13237045",15,"left","accuracy","left","left",1,0.8810422
"sub-13237045",16,"right","accuracy","right","right",1,1.0709567
"sub-13237045",17,"right","accuracy","right","left",0,1.5902932
"sub-13237045",18,"left","accuracy","left","left",1,0.8012536
"sub-13237045",19,"left","accuracy","left","left",1,0.6682558
"sub-13237045",20,"right","accuracy","right","right",1,0.7676059
"sub-13237045",21,"right","accuracy","right","left",0,2.8289498
"sub-13237045",22,"left","accuracy","left","left",1,0.7122682
"sub-13237045",23,"left","accuracy","left","left",1,0.5515483
"sub-13237045",24,"right","accuracy","right","right",1,0.7936822
"sub-13237045",25,"right","accuracy","right","right",1,1.1737177
"sub-13237045",26,"left","accuracy","left","left",1,0.5709813
"sub-13237045",27,"left","accuracy","left","left",1,0.5985693
"sub-13237045",28,"right","accuracy","right","right",1,1.1470752
"sub-13237045",29,"left","accuracy","left","left",1,0.6055114
"sub-13237045",30,"right","accuracy","right","right",1,1.2573044
"sub-13237045",31,"left","accuracy","left","left",1,1.1848719
"sub-13237045",32,"right","accuracy","right","right",1,0.6494372
"sub-13237045",33,"right","accuracy","right","right",1,0.9803725
"sub-13237045",34,"left","accuracy","left","left",1,0.6166298
"sub-13237045",35,"right","accuracy","right","left",0,0.7315967
"sub-13237045",36,"left","accuracy","left","right",0,0.4612548
"sub-13237045",37,"left","accuracy","left","left",1,0.5698701
"sub-13237045",38,"right","accuracy","right","left",0,0.6510238
"sub-13237045",39,"left","accuracy","left","right",0,0.6886883
"sub-13237045",40,"right","accuracy","right","right",1,0.7799464
"sub-13237045",41,"left","accuracy","left","left",1,0.7082607
"sub-13237045",42,"right","accuracy","right","right",1,0.8903375
"sub-13237045",43,"right","accuracy","right","left",0,0.764652
"sub-13237045",44,"left","accuracy","left","left",1,0.724507
"sub-13237045",45,"left","accuracy","left","left",1,0.591005
"sub-13237045",46,"right","accuracy","right","right",1,0.8510844
"sub-13237045",47,"left","accuracy","left","left",1,0.6270354
"sub-13237045",48,"right","accuracy","right","right",1,1.1247141
"sub-13237045",49,"left","accuracy","left","left",1,0.6996721
"sub-13237045",50,"right","accuracy","right","right",1,0.6523865
"sub-13237045",51,"right","accuracy","right","right",1,2.2766008
"sub-13237045",52,"left","accuracy","left","left",1,0.6438543
"sub-13237045",53,"right","accuracy","right","right",1,1.0987794
"sub-13237045",54,"left","accuracy","left","left",1,1.3294239
"sub-13237045",55,"left","accuracy","left","left",1,1.1106159
"sub-13237045",56,"right","accuracy","right","right",1,0.8747393
"sub-13237045",57,"right","accuracy","right","right",1,0.9388598
"sub-13237045",58,"left","accuracy","left","left",1,0.8009975
"sub-13237045",59,"left","accuracy","left","left",1,0.8245561
"sub-13237045",60,"right","accuracy","right","right",1,0.7861909
"sub-13337405",1,"left","accuracy","left","right",0,0.907143792
"sub-13337405",2,"right","accuracy","right","left",0,1.041545625
"sub-13337405",3,"left","accuracy","left","left",1,1.516309666
"sub-13337405",4,"right","accuracy","right","right",1,1.561377125
"sub-13337405",5,"left","accuracy","left","left",1,1.627575834
"sub-13337405",6,"right","accuracy","right","left",0,2.109345167
"sub-13337405",7,"right","accuracy","right","right",1,1.363332417
"sub-13337405",8,"left","accuracy","left","right",0,1.300493875
"sub-13337405",9,"left","accuracy","left","right",0,1.938524417
"sub-13337405",10,"right","accuracy","right","left",0,1.940994875
"sub-13337405",11,"right","accuracy","right","left",0,2.276902417
"sub-13337405",12,"left","accuracy","left","right",0,2.094493083
"sub-13337405",13,"left","accuracy","left","right",0,2.840898083
"sub-13337405",14,"right","accuracy","right","left",0,1.557812292
"sub-13337405",15,"right","accuracy","right","right",1,2.849550917
"sub-13337405",16,"left","accuracy","left","left",1,1.360293709
"sub-13337405",17,"left","accuracy","left","right",0,1.408652792
"sub-13337405",18,"right","accuracy","right","right",1,2.246030667
"sub-13337405",19,"right","accuracy","right","left",0,2.728190042
"sub-13337405",20,"left","accuracy","left","right",0,1.133293708
"sub-13337405",21,"right","accuracy","right","right",1,1.560873666
"sub-13337405",22,"left","accuracy","left","left",1,2.520973708
"sub-13337405",23,"right","accuracy","right","right",1,1.629782583
"sub-13337405",24,"left","accuracy","left","left",1,1.230954084
"sub-13337405",25,"right","accuracy","right","right",1,1.886227458
"sub-13337405",26,"left","accuracy","left","right",0,2.1051715
"sub-13337405",27,"right","accuracy","right","left",0,1.508300666
"sub-13337405",28,"left","accuracy","left","right",0,1.036582125
"sub-13337405",29,"right","accuracy","right","right",1,2.194217541
"sub-13337405",30,"left","accuracy","left","left",1,1.769765333
"sub-13337405",31,"right","accuracy","right","left",0,1.990891
"sub-13337405",32,"left","accuracy","left","right",0,1.477271875
"sub-13337405",33,"left","accuracy","left","left",1,1.744778792
"sub-13337405",34,"right","accuracy","right","right",1,1.8499805
"sub-13337405",35,"right","accuracy","right","left",0,1.241144208
"sub-13337405",36,"left","accuracy","left","right",0,1.109053041
"sub-13337405",37,"left","accuracy","left","left",1,1.277270208
"sub-13337405",38,"right","accuracy","right","right",1,1.279771875
"sub-13337405",39,"right","accuracy","right","right",1,0.674748708
"sub-13337405",40,"left","accuracy","left","left",1,1.209791
"sub-13337405",41,"right","accuracy","right","right",1,1.497821709
"sub-13337405",42,"left","accuracy","left","left",1,1.643566958
"sub-13337405",43,"left","accuracy","left","left",1,1.988490792
"sub-13337405",44,"right","accuracy","right","right",1,2.040859583
"sub-13337405",45,"left","accuracy","left","left",1,2.064587791
"sub-13337405",46,"right","accuracy","right","right",1,1.948911583
"sub-13337405",47,"left","accuracy","left","left",1,1.8085695
"sub-13337405",48,"right","accuracy","right","right",1,2.040305459
"sub-13337405",49,"right","accuracy","right","left",0,1.323897917
"sub-13337405",50,"left","accuracy","left","right",0,1.568280791
"sub-13337405",51,"right","accuracy","right","left",0,1.416220959
"sub-13337405",52,"left","accuracy","left","left",1,2.187161208
"sub-13337405",53,"right","accuracy","right","right",1,2.040053917
"sub-13337405",54,"left","accuracy","left","left",1,1.927538958
"sub-13337405",55,"left","accuracy","left","right",0,1.268452
"sub-13337405",56,"right","accuracy","right","left",0,1.316737
"sub-13337405",57,"right","accuracy","right","right",1,1.317016625
"sub-13337405",58,"left","accuracy","left","left",1,1.599890625
"sub-13337405",59,"left","accuracy","left","right",0,1.242506667
"sub-13337405",60,"right","accuracy","right","right",1,1.577231458
"sub-13337405",1,"right","speed","right","right",1,1.002161917
"sub-13337405",2,"left","speed","left","left",1,0.862193125
"sub-13337405",3,"right","speed","right","right",1,1.136594333
"sub-13337405",4,"left","speed","left","left",1,1.486228125
"sub-13337405",5,"left","speed","left","right",0,1.099661167
"sub-13337405",6,"right","speed","right","right",1,1.561071
"sub-13337405",7,"left","speed","left","left",1,1.939279166
"sub-13337405",8,"right","speed","right","right",1,1.579826375
"sub-13337405",9,"left","speed","left","left",1,1.56292825
"sub-13337405",10,"right","speed","right","right",1,1.063471
"sub-13337405",11,"left","speed","left","right",0,1.471286083
"sub-13337405",12,"right","speed","right","left",0,1.424082042
"sub-13337405",13,"right","speed","right","right",1,0.790655625
"sub-13337405",14,"left","speed","left","left",1,0.790297833
"sub-13337405",15,"right","speed","right","right",1,0.48196875
"sub-13337405",16,"left","speed","left","left",1,1.279301833
"sub-13337405",17,"right","speed","right","right",1,0.967297667
"sub-13337405",18,"left","speed","left","right",0,2.041128917
"sub-13337405",19,"left","speed","left","left",1,1.361466167
"sub-13337405",20,"right","speed","right","right",1,1.753893584
"sub-13337405",21,"right","speed","right","left",0,1.78345825
"sub-13337405",22,"left","speed","left","right",0,1.595437042
"sub-13337405",23,"right","speed","right","left",0,0.896315
"sub-13337405",24,"left","speed","left","right",0,1.231474708
"sub-13337405",25,"left","speed","left","right",0,1.296296125
"sub-13337405",26,"right","speed","right","left",0,1.0168025
"sub-13337405",27,"right","speed","right","left",0,1.893400541
"sub-13337405",28,"left","speed","left","right",0,1.281053792
"sub-13337405",29,"left","speed","left","left",1,1.086084958
"sub-13337405",30,"right","speed","right","right",1,1.02539275
"sub-13337405",31,"left","speed","left","left",1,1.159588625
"sub-13337405",32,"right","speed","right","right",1,1.482542917
"sub-13337405",33,"right","speed","right","left",0,1.357456625
"sub-13337405",34,"left","speed","left","right",0,1.461381834
"sub-13337405",35,"right","speed","right","left",0,2.528895917
"sub-13337405",36,"left","speed","left","right",0,2.336871417
"sub-13337405",37,"right","speed","right","left",0,1.422784958
"sub-13337405",38,"left","speed","left","right",0,1.57596
"sub-13337405",39,"left","speed","left","left",1,1.15315925
"sub-13337405",40,"right","speed","right","right",1,1.223586875
"sub-13337405",41,"left","speed","left","right",0,0.786390416
"sub-13337405",42,"right","speed","right","left",0,0.5000385
"sub-13337405",43,"left","speed","left","left",1,0.516778958
"sub-13337405",44,"right","speed","right","left",0,1.54217375
"sub-13337405",45,"right","speed","right","right",1,1.233312958
"sub-13337405",46,"left","speed","left","right",0,2.071464541
"sub-13337405",47,"left","speed","left","left",1,1.12036275
"sub-13337405",48,"right","speed","right","right",1,1.378579083
"sub-13337405",49,"right","speed","right","right",1,2.031788792
"sub-13337405",50,"left","speed","left","left",1,2.049567792
"sub-13337405",51,"left","speed","left","right",0,1.69414025
"sub-13337405",52,"right","speed","right","left",0,1.749631916
"sub-13337405",53,"left","speed","left","right",0,1.158223083
"sub-13337405",54,"right","speed","right","right",1,1.459699
"sub-13337405",55,"left","speed","left","left",1,2.357700583
"sub-13337405",56,"right","speed","right","right",1,2.199606125
"sub-13337405",57,"left","speed","left","left",1,1.328074916
"sub-13337405",58,"right","speed","right","left",0,2.204715417
"sub-13337405",59,"right","speed","right","left",0,1.39288175
"sub-13337405",60,"left","speed","left","right",0,1.0770525
"sub-13362877",1,"right","speed","right","right",1,1.38126545400155
"sub-13362877",2,"left","speed","left","left",1,1.24415810999926
"sub-13362877",3,"left","speed","left","left",1,1.58440648899705
"sub-13362877",4,"right","speed","right","right",1,1.13978595100343
"sub-13362877",5,"left","speed","left","left",1,0.945455240005686
"sub-13362877",6,"right","speed","right","right",1,1.39614752300258
"sub-13362877",7,"right","speed","right","left",0,2.0786454889967
"sub-13362877",8,"left","speed","left","right",0,1.0050143299959
"sub-13362877",9,"right","speed","right","right",1,1.00364678399637
"sub-13362877",10,"left","speed","left","left",1,0.59929443099827
"sub-13362877",11,"left","speed","left","left",1,1.00263178499881
"sub-13362877",12,"right","speed","right","right",1,0.819905005999317
"sub-13362877",13,"left","speed","left","left",1,0.898722532998363
"sub-13362877",14,"right","speed","right","right",1,1.28519914700155
"sub-13362877",15,"left","speed","left","left",1,2.19652022200171
"sub-13362877",16,"right","speed","right","right",1,0.904363045003265
"sub-13362877",17,"left","speed","left","left",1,1.05003923900222
"sub-13362877",18,"right","speed","right","right",1,2.23880192299839
"sub-13362877",19,"left","speed","left","left",1,3.26023473700479
"sub-13362877",20,"right","speed","right","right",1,2.13470164899627
"sub-13362877",21,"left","speed","left","left",1,2.71444221099955
"sub-13362877",22,"right","speed","right","right",1,1.86269071199786
"sub-13362877",23,"right","speed","right","right",1,1.97918792800192
"sub-13362877",24,"left","speed","left","left",1,1.91244277100486
"sub-13362877",25,"right","speed","right","right",1,2.24130165299721
"sub-13362877",26,"left","speed","left","left",1,1.63926845200331
"sub-13362877",27,"left","speed","left","left",1,2.91350739900372
"sub-13362877",28,"right","speed","right","right",1,1.29938871600461
"sub-13362877",29,"right","speed","right","right",1,1.42764684400026
"sub-13362877",30,"left","speed","left","left",1,2.45027918399865
"sub-13362877",31,"right","speed","right","right",1,3.56527580200054
"sub-13362877",32,"left","speed","left","left",1,1.67089988700172
"sub-13362877",33,"right","speed","right","right",1,2.69892760800576
"sub-13362877",34,"left","speed","left","left",1,2.66255925899895
"sub-13362877",35,"left","speed","left","left",1,2.07013800400455
"sub-13362877",36,"right","speed","right","right",1,1.10221134699532
"sub-13362877",37,"right","speed","right","right",1,1.13439523099805
"sub-13362877",38,"left","speed","left","left",1,1.49743649700395
"sub-13362877",39,"left","speed","left","left",1,2.63569152299897
"sub-13362877",40,"right","speed","right","right",1,1.33395380400179
"sub-13362877",41,"right","speed","right","right",1,2.26368319999892
"sub-13362877",42,"left","speed","left","right",0,2.86440455399861
"sub-13362877",43,"left","speed","left","left",1,2.11952665300487
"sub-13362877",44,"right","speed","right","right",1,1.25254761899851
"sub-13362877",45,"right","speed","right","right",1,1.38537085500138
"sub-13362877",46,"left","speed","left","left",1,2.71484693900129
"sub-13362877",47,"right","speed","right","right",1,1.54116823200457
"sub-13362877",48,"left","speed","left","right",0,2.07432709999557
"sub-13362877",49,"left","speed","left","left",1,2.18136033700284
"sub-13362877",50,"right","speed","right","right",1,1.86082324699964
"sub-13362877",51,"left","speed","left","left",1,3.73329015499621
"sub-13362877",52,"right","speed","right","right",1,1.49287921400537
"sub-13362877",53,"right","speed","right","right",1,1.67474742700142
"sub-13362877",54,"left","speed","left","left",1,1.6716356830002
"sub-13362877",55,"left","speed","left","right",0,3.92530127499776
"sub-13362877",56,"right","speed","right","right",1,2.36154820500087
"sub-13362877",57,"right","speed","right","right",1,3.39946995699574
"sub-13362877",58,"left","speed","left","left",1,1.47914990899881
"sub-13362877",59,"left","speed","left","left",1,2.48169668600167
"sub-13362877",60,"right","speed","right","right",1,1.23561639300169
"sub-13362877",1,"right","accuracy","right","right",1,2.09713206699962
"sub-13362877",2,"left","accuracy","left","left",1,2.52279137900041
"sub-13362877",3,"left","accuracy","left","right",0,1.41878611099673
"sub-13362877",4,"right","accuracy","right","right",1,1.7403986950012
"sub-13362877",5,"right","accuracy","right","right",1,1.81371096999646
"sub-13362877",6,"left","accuracy","left","left",1,2.90981012299744
"sub-13362877",7,"right","accuracy","right","right",1,1.35142969500157
"sub-13362877",8,"left","accuracy","left","right",0,5.96443803800503
"sub-13362877",9,"left","accuracy","left","left",1,3.52880816600373
"sub-13362877",10,"right","accuracy","right","right",1,1.51863653500186
"sub-13362877",11,"right","accuracy","right","left",0,3.10691002800013
"sub-13362877",12,"left","accuracy","left","right",0,1.29044923100446
"sub-13362877",13,"left","accuracy","left","left",1,1.48985444900609
"sub-13362877",14,"right","accuracy","right","right",1,0.95559470399894
"sub-13362877",15,"left","accuracy","left","left",1,1.82219301399891
"sub-13362877",16,"right","accuracy","right","right",1,1.53547037899989
"sub-13362877",17,"left","accuracy","left","left",1,2.03984958500223
"sub-13362877",18,"right","accuracy","right","right",1,1.13344988100289
"sub-13362877",19,"left","accuracy","left","left",1,1.27163192399894
"sub-13362877",20,"right","accuracy","right","right",1,1.79639425200003
"sub-13362877",21,"left","accuracy","left","left",1,2.99294270199607
"sub-13362877",22,"right","accuracy","right","right",1,1.68424580399733
"sub-13362877",23,"left","accuracy","left","left",1,2.58068084499973
"sub-13362877",24,"right","accuracy","right","left",0,3.25761785700161
"sub-13362877",25,"left","accuracy","left","right",0,4.00115154800005
"sub-13362877",26,"right","accuracy","right","right",1,4.80834472699644
"sub-13362877",27,"left","accuracy","left","left",1,1.52256379299797
"sub-13362877",28,"right","accuracy","right","right",1,2.16530573599448
"sub-13362877",29,"left","accuracy","left","left",1,1.98941557500075
"sub-13362877",30,"right","accuracy","right","right",1,4.45873665800173
"sub-13362877",31,"left","accuracy","left","left",1,5.9918689049955
"sub-13362877",32,"right","accuracy","right","right",1,5.80210216299747
"sub-13362877",33,"left","accuracy","left","right",0,3.84845147000306
"sub-13362877",34,"right","accuracy","right","left",0,2.59317502599879
"sub-13362877",35,"right","accuracy","right","right",1,1.55708326699823
"sub-13362877",36,"left","accuracy","left","left",1,2.61266830400564
"sub-13362877",37,"right","accuracy","right","right",1,2.19306531199982
"sub-13362877",38,"left","accuracy","left","left",1,1.94951210900035
"sub-13362877",39,"right","accuracy","right","right",1,1.35146057699603
"sub-13362877",40,"left","accuracy","left","right",0,3.79497651999554
"sub-13362877",41,"left","accuracy","left","left",1,2.15922069700173
"sub-13362877",42,"right","accuracy","right","right",1,2.1603971930017
"sub-13362877",43,"left","accuracy","left","left",1,3.64314435699634
"sub-13362877",44,"right","accuracy","right","right",1,3.49996804600232
"sub-13362877",45,"right","accuracy","right","right",1,2.83431582200137
"sub-13362877",46,"left","accuracy","left","right",0,4.85190268800216
"sub-13362877",47,"left","accuracy","left","left",1,2.7564662060031
"sub-13362877",48,"right","accuracy","right","right",1,2.34254075000354
"sub-13362877",49,"left","accuracy","left","left",1,2.30568204799783
"sub-13362877",50,"right","accuracy","right","right",1,1.60421714399854
"sub-13362877",51,"left","accuracy","left","right",0,2.00569155999983
"sub-13362877",52,"right","accuracy","right","left",0,1.73616204199789
"sub-13362877",53,"right","accuracy","right","right",1,1.30380142099602
"sub-13362877",54,"left","accuracy","left","left",1,2.55791818500438
"sub-13362877",55,"left","accuracy","left","right",0,1.62023107300047
"sub-13362877",56,"right","accuracy","right","right",1,1.39240127799712
"sub-13362877",57,"right","accuracy","right","right",1,2.32521365399589
"sub-13362877",58,"left","accuracy","left","left",1,2.15191190400219
"sub-13362877",59,"left","accuracy","left","left",1,2.18531488600274
"sub-13362877",60,"right","accuracy","right","right",1,1.28339114700066
"sub-13435493",1,"right","accuracy","right","left",0,6.09031000002869
"sub-13435493",2,"left","accuracy","left","right",0,4.18732610001462
"sub-13435493",3,"left","accuracy","left","left",1,5.81828780000797
"sub-13435493",4,"right","accuracy","right","right",1,3.20899730001111
"sub-13435493",5,"left","accuracy","left","right",0,3.35313699999824
"sub-13435493",6,"right","accuracy","right","right",1,5.49531919998117
"sub-13435493",7,"left","accuracy","left","left",1,3.4454560999875
"sub-13435493",8,"right","accuracy","right","left",0,6.17411289998563
"sub-13435493",9,"left","accuracy","left","right",0,2.79821090001496
"sub-13435493",10,"right","accuracy","right","right",1,5.20973169998615
"sub-13435493",11,"right","accuracy","right","right",1,1.81145579999429
"sub-13435493",12,"left","accuracy","left","left",1,1.58547719998751
"sub-13435493",13,"left","accuracy","left","left",1,1.6740376999951
"sub-13435493",14,"right","accuracy","right","left",0,5.95262249998632
"sub-13435493",15,"left","accuracy","left","right",0,1.6804950000078
"sub-13435493",16,"right","accuracy","right","left",0,3.54935260000639
"sub-13435493",17,"right","accuracy","right","right",1,7.55958949998603
"sub-13435493",18,"left","accuracy","left","left",1,5.52106170001207
"sub-13435493",19,"right","accuracy","right","right",1,3.61237550000078
"sub-13435493",20,"left","accuracy","left","left",1,5.9952484999958
"sub-13435493",21,"right","accuracy","right","right",1,3.84300449999864
"sub-13435493",22,"left","accuracy","left","right",0,6.21255259998725
"sub-13435493",23,"left","accuracy","left","right",0,3.66402349999407
"sub-13435493",24,"right","accuracy","right","left",0,2.95613559999038
"sub-13435493",25,"right","accuracy","right","right",1,3.36043180001434
"sub-13435493",26,"left","accuracy","left","right",0,1.03489999999874
"sub-13435493",27,"right","accuracy","right","right",1,2.27529590000631
"sub-13435493",28,"left","accuracy","left","left",1,5.32214670002577
"sub-13435493",29,"right","accuracy","right","left",0,3.78898070001742
"sub-13435493",30,"left","accuracy","left","right",0,6.36699529999169
"sub-13435493",31,"right","accuracy","right","left",0,3.17930320001324
"sub-13435493",32,"left","accuracy","left","left",1,5.42619580001337
"sub-13435493",33,"left","accuracy","left","left",1,3.48191189998761
"sub-13435493",34,"right","accuracy","right","right",1,1.92892320000101
"sub-13435493",35,"left","accuracy","left","left",1,4.52589839999564
"sub-13435493",36,"right","accuracy","right","right",1,3.79173399999854
"sub-13435493",37,"right","accuracy","right","left",0,3.02043150001555
"sub-13435493",38,"left","accuracy","left","left",1,3.0006970000104
"sub-13435493",39,"right","accuracy","right","right",1,2.18931190000148
"sub-13435493",40,"left","accuracy","left","left",1,5.20234360001632
"sub-13435493",41,"right","accuracy","right","right",1,1.3107597999915
"sub-13435493",42,"left","accuracy","left","right",0,2.32443370000692
"sub-13435493",43,"left","accuracy","left","left",1,2.95290859998204
"sub-13435493",44,"right","accuracy","right","right",1,3.85559110000031
"sub-13435493",45,"right","accuracy","right","right",1,4.05876189999981
"sub-13435493",46,"left","accuracy","left","left",1,2.65293469998869
"sub-13435493",47,"left","accuracy","left","left",1,4.05587079998804
"sub-13435493",48,"right","accuracy","right","right",1,1.20805700001074
"sub-13435493",49,"right","accuracy","right","right",1,1.82386830000905
"sub-13435493",50,"left","accuracy","left","left",1,1.52097569999751
"sub-13435493",51,"right","accuracy","right","right",1,1.26005949999671
"sub-13435493",52,"left","accuracy","left","left",1,1.97408089999226
"sub-13435493",53,"left","accuracy","left","left",1,1.05191909999121
"sub-13435493",54,"right","accuracy","right","right",1,3.20753819998936
"sub-13435493",55,"left","accuracy","left","left",1,3.23073799998383
"sub-13435493",56,"right","accuracy","right","right",1,3.42616290002479
"sub-13435493",57,"left","accuracy","left","right",0,3.14438969999901
"sub-13435493",58,"right","accuracy","right","right",1,3.1145635000139
"sub-13435493",59,"left","accuracy","left","left",1,1.45830460000434
"sub-13435493",60,"right","accuracy","right","right",1,3.34253120000358
"sub-13435493",1,"left","speed","left","right",0,0.927918700006558
"sub-13435493",2,"right","speed","right","right",1,0.69691359999706
"sub-13435493",3,"left","speed","left","left",1,1.30841440000222
"sub-13435493",4,"right","speed","right","right",1,0.923049600009108
"sub-13435493",5,"left","speed","left","left",1,0.582222099998035
"sub-13435493",6,"right","speed","right","right",1,0.530805899994448
"sub-13435493",7,"right","speed","right","left",0,0.499147299997276
"sub-13435493",8,"left","speed","left","left",1,0.5619841000007
"sub-13435493",9,"left","speed","left","right",0,1.23644500001683
"sub-13435493",10,"right","speed","right","right",1,1.08786020000116
"sub-13435493",11,"right","speed","right","right",1,1.60000960002071
"sub-13435493",12,"left","speed","left","left",1,0.840730300027644
"sub-13435493",13,"left","speed","left","left",1,2.51256299999659
"sub-13435493",14,"right","speed","right","right",1,0.955960399995092
"sub-13435493",15,"right","speed","right","left",0,0.911794000014197
"sub-13435493",16,"left","speed","left","left",1,1.2668091999949
"sub-13435493",17,"left","speed","left","right",0,0.819841299991822
"sub-13435493",18,"right","speed","right","left",0,0.71852300001774
"sub-13435493",19,"right","speed","right","right",1,0.727608899993356
"sub-13435493",20,"left","speed","left","left",1,1.43516289998661
"sub-13435493",21,"left","speed","left","left",1,0.936042399989674
"sub-13435493",22,"right","speed","right","right",1,0.978100399981486
"sub-13435493",23,"left","speed","left","left",1,1.5576832999941
"sub-13435493",24,"right","speed","right","right",1,0.84048429998802
"sub-13435493",25,"left","speed","left","left",1,0.813829699996859
"sub-13435493",26,"right","speed","right","right",1,0.738364199991338
"sub-13435493",27,"right","speed","right","right",1,1.23065760001191
"sub-13435493",28,"left","speed","left","left",1,1.22820809998666
"sub-13435493",29,"right","speed","right","right",1,1.50511490000645
"sub-13435493",30,"left","speed","left","left",1,0.820966400002362
"sub-13435493",31,"left","speed","left","left",1,1.23899460001849
"sub-13435493",32,"right","speed","right","right",1,0.841276499995729
"sub-13435493",33,"left","speed","left","left",1,0.782247199997073
"sub-13435493",34,"right","speed","right","right",1,0.78138649999164
"sub-13435493",35,"left","speed","left","left",1,0.738838100020075
"sub-13435493",36,"right","speed","right","right",1,0.640860999992583
"sub-13435493",37,"right","speed","right","right",1,0.632479899999453
"sub-13435493",38,"left","speed","left","right",0,0.951639400009299
"sub-13435493",39,"left","speed","left","left",1,0.682970800000476
"sub-13435493",40,"right","speed","right","right",1,0.891678999993019
"sub-13435493",41,"right","speed","right","left",0,0.70214660000056
"sub-13435493",42,"left","speed","left","left",1,0.837850599986268
"sub-13435493",43,"left","speed","left","right",0,0.679948500008322
"sub-13435493",44,"right","speed","right","right",1,0.787745000008726
"sub-13435493",45,"left","speed","left","left",1,0.799623400002019
"sub-13435493",46,"right","speed","right","right",1,0.841004099987913
"sub-13435493",47,"left","speed","left","left",1,0.733054900018033
"sub-13435493",48,"right","speed","right","right",1,0.741922399989562
"sub-13435493",49,"right","speed","right","right",1,0.773667400004342
"sub-13435493",50,"left","speed","left","left",1,0.662605799996527
"sub-13435493",51,"right","speed","right","right",1,0.686971999995876
"sub-13435493",52,"left","speed","left","left",1,0.528942200005986
"sub-13435493",53,"right","speed","right","right",1,0.647746400005417
"sub-13435493",54,"left","speed","left","left",1,0.788588499999605
"sub-13435493",55,"left","speed","left","right",0,0.500245499977609
"sub-13435493",56,"right","speed","right","right",1,0.871164399984991
"sub-13435493",57,"left","speed","left","left",1,1.1519893000077
"sub-13435493",58,"right","speed","right","right",1,0.904274900007294
"sub-13435493",59,"right","speed","right","right",1,1.1010215000133
"sub-13435493",60,"left","speed","left","left",1,0.852227600000333
"sub-1408686",1,"right","accuracy","right","right",1,3.7130454
"sub-1408686",2,"left","accuracy","left","left",1,2.0464879
"sub-1408686",3,"right","accuracy","right","right",1,0.8109512
"sub-1408686",4,"left","accuracy","left","left",1,0.7631365
"sub-1408686",5,"left","accuracy","left","left",1,1.0407207
"sub-1408686",6,"right","accuracy","right","right",1,0.9330287
"sub-1408686",7,"right","accuracy","right","right",1,6.1522817
"sub-1408686",8,"left","accuracy","left","left",1,0.6474806
"sub-1408686",9,"left","accuracy","left","left",1,0.8082825
"sub-1408686",10,"right","accuracy","right","right",1,0.683222
"sub-1408686",11,"left","accuracy","left","left",1,0.7288352
"sub-1408686",12,"right","accuracy","right","right",1,0.7015023
"sub-1408686",13,"right","accuracy","right","right",1,0.9299863
"sub-1408686",14,"left","accuracy","left","left",1,0.9415754
"sub-1408686",15,"right","accuracy","right","right",1,0.6106803
"sub-1408686",16,"left","accuracy","left","left",1,0.5744798
"sub-1408686",17,"right","accuracy","right","right",1,0.6505077
"sub-1408686",18,"left","accuracy","left","left",1,0.6562835
"sub-1408686",19,"left","accuracy","left","left",1,2.0414332
"sub-1408686",20,"right","accuracy","right","right",1,0.7041863
"sub-1408686",21,"left","accuracy","left","left",1,0.6731619
"sub-1408686",22,"right","accuracy","right","right",1,0.8118677
"sub-1408686",23,"left","accuracy","left","left",1,0.6382255
"sub-1408686",24,"right","accuracy","right","right",1,1.7349467
"sub-1408686",25,"right","accuracy","right","right",1,2.455762
"sub-1408686",26,"left","accuracy","left","left",1,0.7047807
"sub-1408686",27,"right","accuracy","right","right",1,0.5269812
"sub-1408686",28,"left","accuracy","left","left",1,0.6792314
"sub-1408686",29,"right","accuracy","right","right",1,1.3674104
"sub-1408686",30,"left","accuracy","left","left",1,1.5305625
"sub-1408686",31,"right","accuracy","right","right",1,2.2263514
"sub-1408686",32,"left","accuracy","left","left",1,0.826137
"sub-1408686",33,"right","accuracy","right","right",1,4.875695
"sub-1408686",34,"left","accuracy","left","left",1,0.5563929
"sub-1408686",35,"right","accuracy","right","right",1,1.4077891
"sub-1408686",36,"left","accuracy","left","left",1,1.362302
"sub-1408686",37,"right","accuracy","right","right",1,1.6731469
"sub-1408686",38,"left","accuracy","left","left",1,0.6765931
"sub-1408686",39,"right","accuracy","right","right",1,1.8039037
"sub-1408686",40,"left","accuracy","left","left",1,0.584611
"sub-1408686",41,"left","accuracy","left","left",1,0.630111
"sub-1408686",42,"right","accuracy","right","right",1,1.457144
"sub-1408686",43,"right","accuracy","right","right",1,1.4585578
"sub-1408686",44,"left","accuracy","left","left",1,0.6423564
"sub-1408686",45,"left","accuracy","left","left",1,1.1506673
"sub-1408686",46,"right","accuracy","right","right",1,0.902903
"sub-1408686",47,"left","accuracy","left","left",1,0.5370869
"sub-1408686",48,"right","accuracy","right","right",1,0.5404496
"sub-1408686",49,"left","accuracy","left","left",1,0.4942381
"sub-1408686",50,"right","accuracy","right","right",1,0.5664717
"sub-1408686",51,"right","accuracy","right","right",1,0.7003147
"sub-1408686",52,"left","accuracy","left","left",1,0.5966456
"sub-1408686",53,"right","accuracy","right","right",1,0.6354012
"sub-1408686",54,"left","accuracy","left","left",1,0.6373742
"sub-1408686",55,"left","accuracy","left","left",1,0.8148574
"sub-1408686",56,"right","accuracy","right","right",1,0.9382299
"sub-1408686",57,"right","accuracy","right","right",1,0.4656279
"sub-1408686",58,"left","accuracy","left","left",1,0.6503632
"sub-1408686",59,"right","accuracy","right","right",1,0.661285
"sub-1408686",60,"left","accuracy","left","left",1,0.8227122
"sub-1408686",1,"left","speed","left","left",1,0.5801015
"sub-1408686",2,"right","speed","right","right",1,0.7338462
"sub-1408686",3,"right","speed","right","right",1,0.7815216
"sub-1408686",4,"left","speed","left","left",1,0.3923612
"sub-1408686",5,"left","speed","left","left",1,0.5867737
"sub-1408686",6,"right","speed","right","right",1,0.4074362
"sub-1408686",7,"right","speed","right","left",0,0.4063082
"sub-1408686",8,"left","speed","left","left",1,0.5711892
"sub-1408686",9,"right","speed","right","right",1,0.6453271
"sub-1408686",10,"left","speed","left","left",1,0.5851474
"sub-1408686",11,"right","speed","right","right",1,0.958846
"sub-1408686",12,"left","speed","left","left",1,0.6750862
"sub-1408686",13,"right","speed","right","right",1,2.775305
"sub-1408686",14,"left","speed","left","left",1,0.8163217
"sub-1408686",15,"right","speed","right","right",1,0.9596321
"sub-1408686",16,"left","speed","left","left",1,0.7121457
"sub-1408686",17,"right","speed","right","right",1,0.6129609
"sub-1408686",18,"left","speed","left","left",1,0.5734337
"sub-1408686",19,"right","speed","right","right",1,0.7895378
"sub-1408686",20,"left","speed","left","left",1,0.6414181
"sub-1408686",21,"right","speed","right","left",0,0.394271
"sub-1408686",22,"left","speed","left","left",1,1.177858
"sub-1408686",23,"right","speed","right","right",1,0.7305162
"sub-1408686",24,"left","speed","left","left",1,1.4149967
"sub-1408686",25,"left","speed","left","right",0,1.41001
"sub-1408686",26,"right","speed","right","left",0,1.1575995
"sub-1408686",27,"left","speed","left","left",1,0.9149324
"sub-1408686",28,"right","speed","right","left",0,2.2732838
"sub-1408686",29,"right","speed","right","right",1,3.9978724
"sub-1408686",30,"left","speed","left","left",1,0.6434218
"sub-1408686",31,"left","speed","left","left",1,0.5476834
"sub-1408686",32,"right","speed","right","left",0,0.6035694
"sub-1408686",33,"left","speed","left","left",1,1.0350748
"sub-1408686",34,"right","speed","right","left",0,2.9454931
"sub-1408686",35,"left","speed","left","left",1,0.7327231
"sub-1408686",36,"right","speed","right","left",0,0.6541004
"sub-1408686",37,"right","speed","right","left",0,1.7005211
"sub-1408686",38,"left","speed","left","left",1,0.5897636
"sub-1408686",39,"right","speed","right","left",0,0.9535653
"sub-1408686",40,"left","speed","left","right",0,1.2322462
"sub-1408686",41,"left","speed","left","left",1,0.9025609
"sub-1408686",42,"right","speed","right","left",0,2.2038471
"sub-1408686",43,"left","speed","left","right",0,1.7656732
"sub-1408686",44,"right","speed","right","left",0,0.7236096
"sub-1408686",45,"left","speed","left","right",0,0.7502322
"sub-1408686",46,"right","speed","right","left",0,1.1715718
"sub-1408686",47,"right","speed","right","right",1,1.1305198
"sub-1408686",48,"left","speed","left","right",0,1.0809762
"sub-1408686",49,"left","speed","left","left",1,1.2245528
"sub-1408686",50,"right","speed","right","left",0,0.6086116
"sub-1408686",51,"right","speed","right","left",0,0.4595392
"sub-1408686",52,"left","speed","left","left",1,4.4721523
"sub-1408686",53,"left","speed","left","left",1,2.4523116
"sub-1408686",54,"right","speed","right","right",1,3.0899325
"sub-1408686",55,"left","speed","left","left",1,2.9094581
"sub-1408686",56,"right","speed","right","right",1,4.0217025
"sub-1408686",57,"left","speed","left","left",1,3.6063544
"sub-1408686",58,"right","speed","right","left",0,3.6789298
"sub-1408686",59,"right","speed","right","left",0,1.1203454
"sub-1408686",60,"left","speed","left","left",1,1.4835077
"sub-14106666",1,"right","speed","right","right",1,1.04069780000009
"sub-14106666",2,"left","speed","left","left",1,1.4361778
"sub-14106666",3,"left","speed","left","left",1,1.39030739999998
"sub-14106666",4,"right","speed","right","left",0,1.52407849999997
"sub-14106666",5,"right","speed","right","right",1,1.79505469999992
"sub-14106666",6,"left","speed","left","left",1,1.49190269999997
"sub-14106666",7,"left","speed","left","left",1,1.3408561
"sub-14106666",8,"right","speed","right","right",1,1.18563490000008
"sub-14106666",9,"right","speed","right","right",1,1.60002029999998
"sub-14106666",10,"left","speed","left","left",1,2.1435295
"sub-14106666",11,"left","speed","left","right",0,1.14961579999999
"sub-14106666",12,"right","speed","right","left",0,1.40455040000006
"sub-14106666",13,"right","speed","right","right",1,0.986416200000008
"sub-14106666",14,"left","speed","left","right",0,2.12297149999995
"sub-14106666",15,"right","speed","right","right",1,2.53395089999992
"sub-14106666",16,"left","speed","left","left",1,1.35757960000001
"sub-14106666",17,"left","speed","left","right",0,1.72844139999995
"sub-14106666",18,"right","speed","right","left",0,1.22092039999995
"sub-14106666",19,"right","speed","right","right",1,1.52270329999999
"sub-14106666",20,"left","speed","left","right",0,1.82842620000008
"sub-14106666",21,"right","speed","right","left",0,1.32736399999999
"sub-14106666",22,"left","speed","left","left",1,1.3949619
"sub-14106666",23,"right","speed","right","left",0,1.44515350000006
"sub-14106666",24,"left","speed","left","right",0,1.20857530000001
"sub-14106666",25,"left","speed","left","left",1,2.04603530000009
"sub-14106666",26,"right","speed","right","right",1,0.797411500000067
"sub-14106666",27,"right","speed","right","left",0,1.25261239999998
"sub-14106666",28,"left","speed","left","right",0,2.1858772999999
"sub-14106666",29,"left","speed","left","left",1,0.745447900000045
"sub-14106666",30,"right","speed","right","right",1,0.666802400000051
"sub-14106666",31,"left","speed","left","left",1,1.09308850000002
"sub-14106666",32,"right","speed","right","left",0,0.9748558
"sub-14106666",33,"right","speed","right","right",1,0.983806200000004
"sub-14106666",34,"left","speed","left","left",1,2.19085540000003
"sub-14106666",35,"left","speed","left","left",1,2.49085579999996
"sub-14106666",36,"right","speed","right","right",1,1.55796029999999
"sub-14106666",37,"right","speed","right","left",0,2.51852719999999
"sub-14106666",38,"left","speed","left","right",0,1.18583920000003
"sub-14106666",39,"left","speed","left","left",1,1.50141370000006
"sub-14106666",40,"right","speed","right","right",1,1.26268479999999
"sub-14106666",41,"left","speed","left","right",0,0.996254300000032
"sub-14106666",42,"right","speed","right","right",1,1.39474489999998
"sub-14106666",43,"left","speed","left","right",0,1.4907518
"sub-14106666",44,"right","speed","right","left",0,1.39861329999997
"sub-14106666",45,"left","speed","left","left",1,2.86692919999996
"sub-14106666",46,"right","speed","right","right",1,1.9325857
"sub-14106666",47,"left","speed","left","right",0,1.51127889999998
"sub-14106666",48,"right","speed","right","right",1,2.85081960000002
"sub-14106666",49,"right","speed","right","left",0,1.74821400000008
"sub-14106666",50,"left","speed","left","right",0,3.18031539999993
"sub-14106666",51,"right","speed","right","right",1,1.64676269999995
"sub-14106666",52,"left","speed","left","left",1,2.24363099999994
"sub-14106666",53,"right","speed","right","right",1,2.02466349999997
"sub-14106666",54,"left","speed","left","left",1,1.40878579999992
"sub-14106666",55,"left","speed","left","left",1,1.92196390000004
"sub-14106666",56,"right","speed","right","right",1,0.882085300000085
"sub-14106666",57,"right","speed","right","left",0,1.92845899999998
"sub-14106666",58,"left","speed","left","right",0,1.04957790000003
"sub-14106666",59,"left","speed","left","right",0,1.48514680000005
"sub-14106666",60,"right","speed","right","left",0,1.40893360000007
"sub-14106666",1,"left","accuracy","left","right",0,4.0364548
"sub-14106666",2,"right","accuracy","right","right",1,4.27766729999996
"sub-14106666",3,"left","accuracy","left","left",1,1.64683850000006
"sub-14106666",4,"right","accuracy","right","right",1,0.932909799999948
"sub-14106666",5,"right","accuracy","right","right",1,1.8409838
"sub-14106666",6,"left","accuracy","left","left",1,2.28228669999999
"sub-14106666",7,"right","accuracy","right","right",1,0.89338829999997
"sub-14106666",8,"left","accuracy","left","left",1,2.4592245
"sub-14106666",9,"left","accuracy","left","right",0,1.61673780000001
"sub-14106666",10,"right","accuracy","right","right",1,6.24003759999994
"sub-14106666",11,"right","accuracy","right","right",1,1.65290110000001
"sub-14106666",12,"left","accuracy","left","left",1,0.992900700000064
"sub-14106666",13,"left","accuracy","left","right",0,0.782816800000091
"sub-14106666",14,"right","accuracy","right","right",1,1.4467373
"sub-14106666",15,"right","accuracy","right","right",1,3.62646829999994
"sub-14106666",16,"left","accuracy","left","left",1,2.28658840000003
"sub-14106666",17,"right","accuracy","right","right",1,1.3584307000001
