wordCTK,colorCTK,corrAnsCTK,congruentCTK,wordPractice,colorPractice,corrAnsPractice,congruentPractice,word,color,corrAns,congruent,trials_CTK.thisRepN,trials_CTK.thisTrialN,trials_CTK.thisN,trials_CTK.thisIndex,trials_practice.thisRepN,trials_practice.thisTrialN,trials_practice.thisN,trials_practice.thisIndex,trials_test.thisRepN,trials_test.thisTrialN,trials_test.thisN,trials_test.thisIndex,thisRow.t,notes,instruction.started,instr_text.started,instr_image.started,instr_resp.started,instruction.stopped,instr_resp.keys,instr_resp.rt,instr_resp.duration,instr_color_to_key.started,instr_ctk.started,resp_ctk.started,instr_color_to_key.stopped,resp_ctk.keys,resp_ctk.rt,resp_ctk.duration,ITI.started,fixcross.started,fixcross.stopped,ITI.stopped,color_to_key_run.started,stimulus_CTK.started,keyResp_CTK.started,color_to_key_run.stopped,keyResp_CTK.keys,keyResp_CTK.corr,keyResp_CTK.rt,keyResp_CTK.duration,instr_practice.started,instr_practice_text.started,instr_practice_resp.started,instr_practice.stopped,instr_practice_resp.keys,instr_practice_resp.rt,instr_practice_resp.duration,practice_run.started,stimulus_practice.started,respPractice.started,practice_run.stopped,respPractice.keys,respPractice.corr,respPractice.rt,respPractice.duration,feedback.started,textFeedback.started,feedback.stopped,instr_test.started,instr_test_text.started,instr_test_resp.started,instr_test.stopped,instr_test_resp.keys,instr_test_resp.rt,instr_test_resp.duration,test_run.started,stimulus_test_run.started,keyResp_test_run.started,test_run.stopped,keyResp_test_run.keys,keyResp_test_run.corr,keyResp_test_run.rt,keyResp_test_run.duration,goodbye.started,textGoodbye.started,goodbye.stopped,participant,session,date,expName,psychopyVersion,frameRate,expStart,
,,,,,,,,,,,,,,,,,,,,,,,,,,0.05172869999660179,0.108850499993423,0.108850499993423,0.108850499993423,97.52308070000436,space,97.40236140000343,None,,,,,,,,,,,,,,,,,,,,,,,,,,,,,,,,,,,,,,,,,,,,,,,,,,,,,,,,sub-481121,001,2024-03-12_13h40.03.342,stroop_test,2023.2.3,None,2024-03-12 13h40.28.162819 +0100,
,,,,,,,,,,,,,,,,,,,,,,,,,,,,,,,,,,97.52314049999404,97.54151779999665,97.54151779999665,103.60387690000061,space,6.05660729999363,None,,,,,,,,,,,,,,,,,,,,,,,,,,,,,,,,,,,,,,,,,,,,,,,,,sub-481121,001,2024-03-12_13h40.03.342,stroop_test,2023.2.3,None,2024-03-12 13h40.28.162819 +0100,
test,yellow,g,1,,,,,,,,,0,0,0,1,,,,,,,,,103.63964900000428,,,,,,,,,,,,,,,,,103.6236218999984,103.71032209999976,104.53583320000325,104.5008811000007,104.50091619999148,104.53583320000325,104.53583320000325,106.70450150000397,g,1,2.165334899997106,None,,,,,,,,,,,,,,,,,,,,,,,,,,,,,,,,,,,,,sub-481121,001,2024-03-12_13h40.03.342,stroop_test,2023.2.3,None,2024-03-12 13h40.28.162819 +0100,
test,red,r,1,,,,,,,,,0,1,1,0,,,,,,,,,106.72507980000228,,,,,,,,,,,,,,,,,106.70635089999996,106.81368120000116,107.62877429999935,107.61149929999374,107.61153480000212,107.62877429999935,107.62877429999935,108.56533800000034,r,1,0.930068100002245,None,,,,,,,,,,,,,,,,,,,,,,,,,,,,,,,,,,,,,sub-481121,001,2024-03-12_13h40.03.342,stroop_test,2023.2.3,None,2024-03-12 13h40.28.162819 +0100,
test,blue,b,1,,,,,,,,,0,2,2,2,,,,,,,,,108.58416579999903,,,,,,,,,,,,,,,,,108.5667306999967,108.6730644999916,109.48588720000407,109.46745729999384,109.46748900000239,109.48588720000407,109.48588720000407,110.09392200000002,b,1,0.586531399996602,None,,,,,,,,,,,,,,,,,,,,,,,,,,,,,,,,,,,,,sub-481121,001,2024-03-12_13h40.03.342,stroop_test,2023.2.3,None,2024-03-12 13h40.28.162819 +0100,
test,red,r,1,,,,,,,,,1,0,3,0,,,,,,,,,110.11012810000102,,,,,,,,,,,,,,,,,110.0952796999918,110.90853790000256,111.7136840000021,111.69558929999766,111.69562319999386,111.7136840000021,111.7136840000021,112.4331375000038,r,1,0.7075942999945255,None,,,,,,,,,,,,,,,,,,,,,,,,,,,,,,,,,,,,,sub-481121,001,2024-03-12_13h40.03.342,stroop_test,2023.2.3,None,2024-03-12 13h40.28.162819 +0100,
test,yellow,g,1,,,,,,,,,1,1,4,1,,,,,,,,,112.45096580000245,,,,,,,,,,,,,,,,,112.43445869999414,112.5395131999976,113.34779450000497,113.32833979999123,113.328394199998,113.34779450000497,113.34779450000497,114.11407169999438,g,1,0.7625622000050498,None,,,,,,,,,,,,,,,,,,,,,,,,,,,,,,,,,,,,,sub-481121,001,2024-03-12_13h40.03.342,stroop_test,2023.2.3,None,2024-03-12 13h40.28.162819 +0100,
test,blue,b,1,,,,,,,,,1,2,5,2,,,,,,,,,114.13074520000373,,,,,,,,,,,,,,,,,114.11561710000387,114.47546050000528,115.28190560000075,115.26221960000112,115.26225269999122,115.28190560000075,115.28190560000075,116.10908219999692,b,1,0.8186859000124969,None,,,,,,,,,,,,,,,,,,,,,,,,,,,,,,,,,,,,,sub-481121,001,2024-03-12_13h40.03.342,stroop_test,2023.2.3,None,2024-03-12 13h40.28.162819 +0100,
test,blue,b,1,,,,,,,,,2,0,6,2,,,,,,,,,116.1262621999922,,,,,,,,,,,,,,,,,116.1107628000027,116.92468430000008,117.735385699998,117.71679799999401,117.716829099998,117.735385699998,117.735385699998,118.59736600000178,b,1,0.8579384000040591,None,,,,,,,,,,,,,,,,,,,,,,,,,,,,,,,,,,,,,sub-481121,001,2024-03-12_13h40.03.342,stroop_test,2023.2.3,None,2024-03-12 13h40.28.162819 +0100,
test,yellow,g,1,,,,,,,,,2,1,7,1,,,,,,,,,118.61432490000152,,,,,,,,,,,,,,,,,118.59910520000267,119.40766219999932,120.20947119999619,120.19199649999791,120.19202619999123,120.20947119999619,120.20947119999619,120.73605389999284,g,1,0.5241259000031278,None,,,,,,,,,,,,,,,,,,,,,,,,,,,,,,,,,,,,,sub-481121,001,2024-03-12_13h40.03.342,stroop_test,2023.2.3,None,2024-03-12 13h40.28.162819 +0100,
test,red,r,1,,,,,,,,,2,2,8,0,,,,,,,,,120.75420300000405,,,,,,,,,,,,,,,,,120.73739529999148,121.54144800000358,122.35383639999782,122.3351021999988,122.33513239999593,122.35383639999782,122.35383639999782,122.77962980000302,r,1,0.42182479999610223,None,,,,,,,,,,,,,,,,,,,,,,,,,,,,,,,,,,,,,sub-481121,001,2024-03-12_13h40.03.342,stroop_test,2023.2.3,None,2024-03-12 13h40.28.162819 +0100,
test,blue,b,1,,,,,,,,,3,0,9,2,,,,,,,,,122.79663409999921,,,,,,,,,,,,,,,,,122.78110799999558,123.13432589999866,123.94679980000365,123.92979739999282,123.92983199999435,123.94679980000365,123.94679980000365,124.63918189999822,b,1,0.6811608999996679,None,,,,,,,,,,,,,,,,,,,,,,,,,,,,,,,,,,,,,sub-481121,001,2024-03-12_13h40.03.342,stroop_test,2023.2.3,None,2024-03-12 13h40.28.162819 +0100,
test,yellow,g,1,,,,,,,,,3,1,10,1,,,,,,,,,124.65726930000528,,,,,,,,,,,,,,,,,124.64051949999703,124.99455940000189,125.80480529999477,125.78669870000158,125.78672940000251,125.80480529999477,125.80480529999477,126.74229439999908,g,1,0.9322186000063084,None,,,,,,,,,,,,,,,,,,,,,,,,,,,,,,,,,,,,,sub-481121,001,2024-03-12_13h40.03.342,stroop_test,2023.2.3,None,2024-03-12 13h40.28.162819 +0100,
test,red,r,1,,,,,,,,,3,2,11,0,,,,,,,,,126.759481400004,,,,,,,,,,,,,,,,,126.74397830000089,126.84807160000491,127.66371900000377,127.64505690000078,127.64509209999233,127.66371900000377,127.66371900000377,128.3619566999987,r,1,0.6837749000114854,None,,,,,,,,,,,,,,,,,,,,,,,,,,,,,,,,,,,,,sub-481121,001,2024-03-12_13h40.03.342,stroop_test,2023.2.3,None,2024-03-12 13h40.28.162819 +0100,
,,,,,,,,,,,,,,,,,,,,,,,,,,,,,,,,,,,,,,,,,,,,,,,,,,,,,128.3629690999951,128.38127480000549,128.38127480000549,131.36218490000465,space,2.9597665000037523,None,,,,,,,,,,,,,,,,,,,,,,,,,,,,,,sub-481121,001,2024-03-12_13h40.03.342,stroop_test,2023.2.3,None,2024-03-12 13h40.28.162819 +0100,
,,,,gelb,yellow,g,1,,,,,,,,,0,0,0,10,,,,,131.393413400001,,,,,,,,,,,,,,,,,131.37773300000117,131.4667999999947,132.29704889999994,132.26107500000217,,,,,,,,,,,,,,,,132.26110679999692,132.29704889999994,132.29704889999994,133.10107200000493,g,1,0.7889990000112448,None,133.1024092000007,133.13967010000488,134.10300439999264,,,,,,,,,,,,,,,,,,,sub-481121,001,2024-03-12_13h40.03.342,stroop_test,2023.2.3,None,2024-03-12 13h40.28.162819 +0100,
,,,,gelb,yellow,g,1,,,,,,,,,0,1,1,11,,,,,134.11987609999778,,,,,,,,,,,,,,,,,134.1037484999979,134.90837019999162,135.72692980000284,135.7093479000032,,,,,,,,,,,,,,,,135.70939980000549,135.72692980000284,135.72692980000284,136.28166219999548,g,1,0.5500801000016509,None,136.2825206999987,136.301378499993,137.29652980000537,,,,,,,,,,,,,,,,,,,sub-481121,001,2024-03-12_13h40.03.342,stroop_test,2023.2.3,None,2024-03-12 13h40.28.162819 +0100,
,,,,rot,red,r,1,,,,,,,,,0,2,2,1,,,,,137.31365129999176,,,,,,,,,,,,,,,,,137.29756389999238,138.49163350000163,139.31709409999894,139.28845989999536,,,,,,,,,,,,,,,,139.28848960000323,139.31709409999894,139.31709409999894,139.72383970000374,r,1,0.40356779999274295,None,139.72471080000105,139.74311500000476,140.72493149999355,,,,,,,,,,,,,,,,,,,sub-481121,001,2024-03-12_13h40.03.342,stroop_test,2023.2.3,None,2024-03-12 13h40.28.162819 +0100,
,,,,blau,red,r,0,,,,,,,,,0,3,3,4,,,,,140.74219170000288,,,,,,,,,,,,,,,,,140.7258056999999,141.5413991999958,142.3598398000031,142.32691590000468,,,,,,,,,,,,,,,,142.32694800000172,142.3598398000031,142.3598398000031,142.87057469999127,b,0,0.4996666999941226,None,142.87146909999137,142.8999654999934,143.87714139999298,,,,,,,,,,,,,,,,,,,sub-481121,001,2024-03-12_13h40.03.342,stroop_test,2023.2.3,None,2024-03-12 13h40.28.162819 +0100,
,,,,rot,blue,b,0,,,,,,,,,0,4,4,2,,,,,143.89334009999584,,,,,,,,,,,,,,,,,143.8779635999963,144.6754699000012,145.49648760000127,145.47401920000266,,,,,,,,,,,,,,,,145.47405119999894,145.49648760000127,145.49648760000127,147.5373302999942,g,0,2.0259922000113875,None,147.5381822000054,147.55777780000062,148.54837599999155,,,,,,,,,,,,,,,,,,,sub-481121,001,2024-03-12_13h40.03.342,stroop_test,2023.2.3,None,2024-03-12 13h40.28.162819 +0100,
,,,,blau,blue,b,1,,,,,,,,,0,5,5,6,,,,,148.56884049999644,,,,,,,,,,,,,,,,,148.54909359999874,148.6544128999958,149.4732612999942,149.44998789999227,,,,,,,,,,,,,,,,149.45002010000462,149.4732612999942,149.4732612999942,150.2629145999963,b,1,0.7723425999865867,None,150.2638117000024,150.28821489999245,151.2787532999937,,,,,,,,,,,,,,,,,,,sub-481121,001,2024-03-12_13h40.03.342,stroop_test,2023.2.3,None,2024-03-12 13h40.28.162819 +0100,
,,,,blau,blue,b,1,,,,,,,,,0,6,6,5,,,,,151.2951441000041,,,,,,,,,,,,,,,,,151.279667099996,151.36612550000427,152.1694398999971,152.15074149999418,,,,,,,,,,,,,,,,152.15077219999512,152.1694398999971,152.1694398999971,152.90315579999879,b,1,0.7261934999987716,None,152.90401529999508,152.92580759999692,153.91613539999526,,,,,,,,,,,,,,,,,,,sub-481121,001,2024-03-12_13h40.03.342,stroop_test,2023.2.3,None,2024-03-12 13h40.28.162819 +0100,
,,,,rot,red,r,1,,,,,,,,,0,7,7,0,,,,,153.93541059999552,,,,,,,,,,,,,,,,,153.91847000000416,154.71763450000435,155.54055579999113,155.5167691999959,,,,,,,,,,,,,,,,155.51680040000065,155.54055579999113,155.54055579999113,156.0671192000009,r,1,0.5097906000009971,None,156.0679836000054,156.0870494999981,157.08223250000447,,,,,,,,,,,,,,,,,,,sub-481121,001,2024-03-12_13h40.03.342,stroop_test,2023.2.3,None,2024-03-12 13h40.28.162819 +0100,
,,,,gelb,blue,b,0,,,,,,,,,0,8,8,9,,,,,157.09893300000113,,,,,,,,,,,,,,,,,157.08292469999287,157.16863699999521,157.98403439999674,157.96208240000124,,,,,,,,,,,,,,,,157.96211409999523,157.98403439999674,157.98403439999674,159.20600289999857,b,1,1.2161910000140779,None,159.20684739999706,159.22650849999627,160.21374989999458,,,,,,,,,,,,,,,,,,,sub-481121,001,2024-03-12_13h40.03.342,stroop_test,2023.2.3,None,2024-03-12 13h40.28.162819 +0100,
,,,,rot,yellow,g,0,,,,,,,,,0,9,9,3,,,,,160.23596469999757,,,,,,,,,,,,,,,,,160.2144660000049,161.00797750000493,161.8308343999961,161.79742879999685,,,,,,,,,,,,,,,,161.79746610000439,161.8308343999961,161.8308343999961,162.63331619999371,g,1,0.7818662000063341,None,162.63418120000279,162.65308689999802,163.6461519000004,,,,,,,,,,,,,,,,,,,sub-481121,001,2024-03-12_13h40.03.342,stroop_test,2023.2.3,None,2024-03-12 13h40.28.162819 +0100,
,,,,blau,yellow,g,0,,,,,,,,,0,10,10,7,,,,,163.66304230000242,,,,,,,,,,,,,,,,,163.64701129999594,163.99158980000357,164.80055309999443,164.7773523999931,,,,,,,,,,,,,,,,164.77738830000453,164.80055309999443,164.80055309999443,165.5635312999948,b,0,0.74319550000655,None,165.56447349999507,165.58866829999897,166.5784028999915,,,,,,,,,,,,,,,,,,,sub-481121,001,2024-03-12_13h40.03.342,stroop_test,2023.2.3,None,2024-03-12 13h40.28.162819 +0100,
,,,,gelb,red,r,0,,,,,,,,,0,11,11,8,,,,,166.59547879999445,,,,,,,,,,,,,,,,,166.57928160000301,167.3755003999977,168.19150489999447,168.16815729999507,,,,,,,,,,,,,,,,168.16818900000362,168.19150489999447,168.19150489999447,169.02267859999847,r,1,0.8101381000014953,None,169.02351899999485,169.0467415000021,170.03576050000265,,,,,,,,,,,,,,,,,,,sub-481121,001,2024-03-12_13h40.03.342,stroop_test,2023.2.3,None,2024-03-12 13h40.28.162819 +0100,
,,,,rot,yellow,g,0,,,,,,,,,1,0,12,3,,,,,170.05250910000177,,,,,,,,,,,,,,,,,170.03651510000054,170.8423471999995,171.6568860999978,171.63362599999527,,,,,,,,,,,,,,,,171.6336569999985,171.6568860999978,171.6568860999978,172.34716609999305,g,1,0.6845982000086224,None,172.3480481000006,172.3665908999974,173.3635912000027,,,,,,,,,,,,,,,,,,,sub-481121,001,2024-03-12_13h40.03.342,stroop_test,2023.2.3,None,2024-03-12 13h40.28.162819 +0100,
,,,,gelb,yellow,g,1,,,,,,,,,1,1,13,11,,,,,173.38433790000272,,,,,,,,,,,,,,,,,173.3643202999956,173.45528639999975,174.26722720000544,174.24531610000122,,,,,,,,,,,,,,,,174.24534959999437,174.26722720000544,174.26722720000544,175.10048330000427,g,1,0.8299116999987746,None,175.10138829999778,175.12113719999616,176.11653719999595,,,,,,,,,,,,,,,,,,,sub-481121,001,2024-03-12_13h40.03.342,stroop_test,2023.2.3,None,2024-03-12 13h40.28.162819 +0100,
,,,,rot,red,r,1,,,,,,,,,1,2,14,1,,,,,176.13334620000387,,,,,,,,,,,,,,,,,176.1173473999952,176.2061665999936,177.01680860000488,176.9938717000041,,,,,,,,,,,,,,,,176.9939056000003,177.01680860000488,177.01680860000488,177.73132700000133,r,1,0.6994774000049802,None,177.73219779999636,177.75147400000424,178.73764989999472,,,,,,,,,,,,,,,,,,,sub-481121,001,2024-03-12_13h40.03.342,stroop_test,2023.2.3,None,2024-03-12 13h40.28.162819 +0100,
,,,,gelb,yellow,g,1,,,,,,,,,1,3,15,10,,,,,178.7564774999919,,,,,,,,,,,,,,,,,178.73837439999625,179.54110709999804,180.35499859999982,180.33138370000233,,,,,,,,,,,,,,,,180.33141479999176,180.35499859999982,180.35499859999982,181.7110920999985,b,0,1.3381729999964591,None,181.71195369999623,181.7458098999923,182.72203200000513,,,,,,,,,,,,,,,,,,,sub-481121,001,2024-03-12_13h40.03.342,stroop_test,2023.2.3,None,2024-03-12 13h40.28.162819 +0100,
,,,,blau,yellow,g,0,,,,,,,,,1,4,16,7,,,,,182.74116910000157,,,,,,,,,,,,,,,,,182.7227370000037,183.07236879999982,183.89291019999655,183.87034510000376,,,,,,,,,,,,,,,,183.87037520000013,183.89291019999655,183.89291019999655,184.62804450000112,b,0,0.7285507999913534,None,184.6289437999949,184.64760850000312,185.63395030000538,,,,,,,,,,,,,,,,,,,sub-481121,001,2024-03-12_13h40.03.342,stroop_test,2023.2.3,None,2024-03-12 13h40.28.162819 +0100,
,,,,gelb,red,r,0,,,,,,,,,1,5,17,8,,,,,185.65094989999488,,,,,,,,,,,,,,,,,185.63468119999743,186.84670399999595,187.66574969999783,187.6421493999951,,,,,,,,,,,,,,,,187.64218339999206,187.66574969999783,187.66574969999783,188.81896170000255,r,1,1.1426343000057386,None,188.81992749999336,188.8487596999912,189.82671290000144,,,,,,,,,,,,,,,,,,,sub-481121,001,2024-03-12_13h40.03.342,stroop_test,2023.2.3,None,2024-03-12 13h40.28.162819 +0100,
,,,,blau,red,r,0,,,,,,,,,1,6,18,4,,,,,189.84351449999667,,,,,,,,,,,,,,,,,189.82762569999613,191.02575639999122,191.84273689999827,191.81936169999244,,,,,,,,,,,,,,,,191.8193939000048,191.84273689999827,191.84273689999827,192.73943240000517,r,1,0.8666261000034865,None,192.7403440999915,192.75957619999826,193.75449249999656,,,,,,,,,,,,,,,,,,,sub-481121,001,2024-03-12_13h40.03.342,stroop_test,2023.2.3,None,2024-03-12 13h40.28.162819 +0100,
,,,,blau,blue,b,1,,,,,,,,,1,7,19,5,,,,,193.77205709999544,,,,,,,,,,,,,,,,,193.75525299999572,194.09412349999184,194.91017000000284,194.89140049999696,,,,,,,,,,,,,,,,194.89143150000018,194.91017000000284,194.91017000000284,195.7085461999959,b,1,0.7912439000065206,None,195.7096571000002,195.728606699995,196.71049670000502,,,,,,,,,,,,,,,,,,,sub-481121,001,2024-03-12_13h40.03.342,stroop_test,2023.2.3,None,2024-03-12 13h40.28.162819 +0100,
,,,,rot,red,r,1,,,,,,,,,1,8,20,0,,,,,196.72745789999317,,,,,,,,,,,,,,,,,196.71133520000149,197.92783729999792,198.7379179999989,198.71453250000195,,,,,,,,,,,,,,,,198.71456269999908,198.7379179999989,198.7379179999989,199.41337219999696,r,1,0.667655700002797,None,199.41430020000553,199.43327300000237,200.41688229999272,,,,,,,,,,,,,,,,,,,sub-481121,001,2024-03-12_13h40.03.342,stroop_test,2023.2.3,None,2024-03-12 13h40.28.162819 +0100,
,,,,gelb,blue,b,0,,,,,,,,,1,9,21,9,,,,,200.43583729999955,,,,,,,,,,,,,,,,,200.41765000000305,201.62757480000437,202.43911559999106,202.41552799999772,,,,,,,,,,,,,,,,202.41556120000314,202.43911559999106,202.43911559999106,203.48525850000442,b,1,1.0382663999916986,None,203.48612400000275,203.51166170000215,204.49184129999776,,,,,,,,,,,,,,,,,,,sub-481121,001,2024-03-12_13h40.03.342,stroop_test,2023.2.3,None,2024-03-12 13h40.28.162819 +0100,
,,,,blau,blue,b,1,,,,,,,,,1,10,22,6,,,,,204.5089902000036,,,,,,,,,,,,,,,,,204.4927849999949,204.83742569999595,205.6505574000039,205.62627399999474,,,,,,,,,,,,,,,,205.62632890000532,205.6505574000039,205.6505574000039,206.17083089999505,b,1,0.5139130000025034,None,206.17173119999643,206.1921422000014,207.17369959999633,,,,,,,,,,,,,,,,,,,sub-481121,001,2024-03-12_13h40.03.342,stroop_test,2023.2.3,None,2024-03-12 13h40.28.162819 +0100,
,,,,rot,blue,b,0,,,,,,,,,1,11,23,2,,,,,207.19183219999832,,,,,,,,,,,,,,,,,207.17448509999667,207.53556459999527,208.3541075999965,208.3309287000011,,,,,,,,,,,,,,,,208.33096130000195,208.3541075999965,208.3541075999965,208.87607939999725,r,0,0.5072311999974772,None,208.8771080000006,208.90122359999805,209.89347270000144,,,,,,,,,,,,,,,,,,,sub-481121,001,2024-03-12_13h40.03.342,stroop_test,2023.2.3,None,2024-03-12 13h40.28.162819 +0100,
,,,,,,,,,,,,,,,,,,,,,,,,,,,,,,,,,,,,,,,,,,,,,,,,,,,,,,,,,,,,,,,,,,,,,,,209.89371380000375,209.91140739999537,209.91140739999537,214.48360360000515,space,4.55866569999489,None,,,,,,,,,,,,sub-481121,001,2024-03-12_13h40.03.342,stroop_test,2023.2.3,None,2024-03-12 13h40.28.162819 +0100,
,,,,,,,,rot,red,r,1,,,,,,,,,0,0,0,1,214.51499359999434,,,,,,,,,,,,,,,,,214.49973899999168,215.28853819999495,216.10350029999972,216.0806401000009,,,,,,,,,,,,,,,,,,,,,,,,,,,,,,,,,,216.08067120000487,216.10350029999972,216.10350029999972,216.8980273999914,r,1,0.7856267999886768,None,,,,sub-481121,001,2024-03-12_13h40.03.342,stroop_test,2023.2.3,None,2024-03-12 13h40.28.162819 +0100,
,,,,,,,,gelb,yellow,g,1,,,,,,,,,0,1,1,11,216.91661839999142,,,,,,,,,,,,,,,,,216.900203600002,217.00573019999138,217.82239980000304,217.7955273999978,,,,,,,,,,,,,,,,,,,,,,,,,,,,,,,,,,217.79555949999485,217.82239980000304,217.82239980000304,218.52878199999395,g,1,0.6967180999927223,None,,,,sub-481121,001,2024-03-12_13h40.03.342,stroop_test,2023.2.3,None,2024-03-12 13h40.28.162819 +0100,
,,,,,,,,gelb,blue,b,0,,,,,,,,,0,2,2,9,218.54572880000342,,,,,,,,,,,,,,,,,218.53040649999457,219.33418760000495,220.15272460000415,220.1341504000011,,,,,,,,,,,,,,,,,,,,,,,,,,,,,,,,,,220.13418079999974,220.15272460000415,220.15272460000415,221.45069630000216,b,1,1.2853873999993084,None,,,,sub-481121,001,2024-03-12_13h40.03.342,stroop_test,2023.2.3,None,2024-03-12 13h40.28.162819 +0100,
,,,,,,,,blau,blue,b,1,,,,,,,,,0,3,3,6,221.46874969999772,,,,,,,,,,,,,,,,,221.4521808999998,222.2576776999922,223.08387279999442,223.05274220000138,,,,,,,,,,,,,,,,,,,,,,,,,,,,,,,,,,223.05277209999622,223.08387279999442,223.08387279999442,223.52868519999902,b,1,0.42630219999409746,None,,,,sub-481121,001,2024-03-12_13h40.03.342,stroop_test,2023.2.3,None,2024-03-12 13h40.28.162819 +0100,
,,,,,,,,blau,yellow,g,0,,,,,,,,,0,4,4,7,223.545452499995,,,,,,,,,,,,,,,,,223.5303333000047,224.33197659999132,225.14990439999383,225.1312559999933,,,,,,,,,,,,,,,,,,,,,,,,,,,,,,,,,,225.13128659999347,225.14990439999383,225.14990439999383,225.77856099999917,g,1,0.6142202999908477,None,,,,sub-481121,001,2024-03-12_13h40.03.342,stroop_test,2023.2.3,None,2024-03-12 13h40.28.162819 +0100,
,,,,,,,,rot,blue,b,0,,,,,,,,,0,5,5,2,225.79692480000085,,,,,,,,,,,,,,,,,225.78037579999364,226.9917476999981,227.798332499995,227.77639469999122,,,,,,,,,,,,,,,,,,,,,,,,,,,,,,,,,,227.77642819999892,227.798332499995,227.798332499995,228.44573779999337,b,1,0.6336305999866454,None,,,,sub-481121,001,2024-03-12_13h40.03.342,stroop_test,2023.2.3,None,2024-03-12 13h40.28.162819 +0100,
,,,,,,,,gelb,yellow,g,1,,,,,,,,,0,6,6,10,228.4630601999961,,,,,,,,,,,,,,,,,228.4473619000055,229.65877029999683,230.4772321999917,230.45503389999794,,,,,,,,,,,,,,,,,,,,,,,,,,,,,,,,,,230.45506409999507,230.4772321999917,230.4772321999917,231.0144566999952,g,1,0.5207624999893596,None,,,,sub-481121,001,2024-03-12_13h40.03.342,stroop_test,2023.2.3,None,2024-03-12 13h40.28.162819 +0100,
,,,,,,,,blau,red,r,0,,,,,,,,,0,7,7,4,231.03197529999306,,,,,,,,,,,,,,,,,231.01598369999556,231.3665095000033,232.18335099999967,232.16036650000024,,,,,,,,,,,,,,,,,,,,,,,,,,,,,,,,,,232.1604004999972,232.18335099999967,232.18335099999967,232.76091850000375,r,1,0.5716869000025326,None,,,,sub-481121,001,2024-03-12_13h40.03.342,stroop_test,2023.2.3,None,2024-03-12 13h40.28.162819 +0100,
,,,,,,,,blau,blue,b,1,,,,,,,,,0,8,8,5,232.77815840000403,,,,,,,,,,,,,,,,,232.76273659999424,233.97401190000528,234.777056299994,234.75940539999283,,,,,,,,,,,,,,,,,,,,,,,,,,,,,,,,,,234.75945030000003,234.777056299994,234.777056299994,235.33001279999735,b,1,0.5418690999940736,None,,,,sub-481121,001,2024-03-12_13h40.03.342,stroop_test,2023.2.3,None,2024-03-12 13h40.28.162819 +0100,
,,,,,,,,gelb,red,r,0,,,,,,,,,0,9,9,8,235.34702099999413,,,,,,,,,,,,,,,,,235.33161490000202,235.44007179999608,236.25972040000488,236.22546659999352,,,,,,,,,,,,,,,,,,,,,,,,,,,,,,,,,,236.2255759999971,236.25972040000488,236.25972040000488,237.09882089999155,r,1,0.8204601000034017,None,,,,sub-481121,001,2024-03-12_13h40.03.342,stroop_test,2023.2.3,None,2024-03-12 13h40.28.162819 +0100,
,,,,,,,,rot,yellow,g,0,,,,,,,,,0,10,10,3,237.116125799992,,,,,,,,,,,,,,,,,237.10032290000527,237.20633610000368,238.0289677999972,238.00567339999543,,,,,,,,,,,,,,,,,,,,,,,,,,,,,,,,,,238.00570339999103,238.0289677999972,238.0289677999972,240.01520759999403,g,1,1.9759431999991648,None,,,,sub-481121,001,2024-03-12_13h40.03.342,stroop_test,2023.2.3,None,2024-03-12 13h40.28.162819 +0100,
,,,,,,,,rot,red,r,1,,,,,,,,,0,11,11,0,240.03316659999837,,,,,,,,,,,,,,,,,240.0166739999986,240.3779635999963,241.19318740000017,241.17154090000258,,,,,,,,,,,,,,,,,,,,,,,,,,,,,,,,,,241.17156990000512,241.19318740000017,241.19318740000017,243.27817259999574,r,1,2.0674733000050765,None,,,,sub-481121,001,2024-03-12_13h40.03.342,stroop_test,2023.2.3,None,2024-03-12 13h40.28.162819 +0100,
,,,,,,,,rot,yellow,g,0,,,,,,,,,1,0,12,3,243.29450910000014,,,,,,,,,,,,,,,,,243.27979899999627,244.49219289999746,245.29917090000527,245.28120840000338,,,,,,,,,,,,,,,,,,,,,,,,,,,,,,,,,,245.28123819999746,245.29917090000527,245.29917090000527,246.04526889999397,g,1,0.739579600005527,None,,,,sub-481121,001,2024-03-12_13h40.03.342,stroop_test,2023.2.3,None,2024-03-12 13h40.28.162819 +0100,
,,,,,,,,blau,blue,b,1,,,,,,,,,1,1,13,6,246.06206589999783,,,,,,,,,,,,,,,,,246.04687099999865,246.40801959999953,247.21819200000027,247.19560389999242,,,,,,,,,,,,,,,,,,,,,,,,,,,,,,,,,,247.19563709999784,247.21819200000027,247.21819200000027,247.78403830000025,b,1,0.555379700002959,None,,,,sub-481121,001,2024-03-12_13h40.03.342,stroop_test,2023.2.3,None,2024-03-12 13h40.28.162819 +0100,
,,,,,,,,gelb,yellow,g,1,,,,,,,,,1,2,14,11,247.80225589999463,,,,,,,,,,,,,,,,,247.78553120000288,248.60366500000237,249.41851839999435,249.3941907999979,,,,,,,,,,,,,,,,,,,,,,,,,,,,,,,,,,249.3942240000033,249.41851839999435,249.41851839999435,250.9320880000014,g,1,1.510222299999441,None,,,,sub-481121,001,2024-03-12_13h40.03.342,stroop_test,2023.2.3,None,2024-03-12 13h40.28.162819 +0100,
,,,,,,,,blau,red,r,0,,,,,,,,,1,3,15,4,250.94875830000092,,,,,,,,,,,,,,,,,250.9337330999988,251.03842969999823,251.85936770000262,251.835754300002,,,,,,,,,,,,,,,,,,,,,,,,,,,,,,,,,,251.8357845999999,251.85936770000262,251.85936770000262,252.575351099993,r,1,0.7031346000003396,None,,,,sub-481121,001,2024-03-12_13h40.03.342,stroop_test,2023.2.3,None,2024-03-12 13h40.28.162819 +0100,
,,,,,,,,rot,blue,b,0,,,,,,,,,1,4,16,2,252.5930786999961,,,,,,,,,,,,,,,,,252.57712519999768,252.94120319999638,253.7596063999954,253.7340441999986,,,,,,,,,,,,,,,,,,,,,,,,,,,,,,,,,,253.7340753000026,253.7596063999954,253.7596063999954,254.58569759999227,b,1,0.8101388000068255,None,,,,sub-481121,001,2024-03-12_13h40.03.342,stroop_test,2023.2.3,None,2024-03-12 13h40.28.162819 +0100,
,,,,,,,,gelb,red,r,0,,,,,,,,,1,5,17,8,254.60411820000445,,,,,,,,,,,,,,,,,254.5872406999988,255.78896750000422,256.60945619999256,256.5852174000029,,,,,,,,,,,,,,,,,,,,,,,,,,,,,,,,,,256.5852494999999,256.60945619999256,256.60945619999256,257.52185999999347,r,1,0.899554600007832,None,,,,sub-481121,001,2024-03-12_13h40.03.342,stroop_test,2023.2.3,None,2024-03-12 13h40.28.162819 +0100,
,,,,,,,,blau,blue,b,1,,,,,,,,,1,6,18,5,257.54021289999946,,,,,,,,,,,,,,,,,257.52337219999754,257.8745949000004,258.69694439999876,258.67331549999653,,,,,,,,,,,,,,,,,,,,,,,,,,,,,,,,,,258.6733452000044,258.69694439999876,258.69694439999876,259.258187200001,b,1,0.5458568000030937,None,,,,sub-481121,001,2024-03-12_13h40.03.342,stroop_test,2023.2.3,None,2024-03-12 13h40.28.162819 +0100,
,,,,,,,,gelb,blue,b,0,,,,,,,,,1,7,19,9,259.27643030000036,,,,,,,,,,,,,,,,,259.2598388000042,260.4751088000048,261.28484999999637,261.26227399999334,,,,,,,,,,,,,,,,,,,,,,,,,,,,,,,,,,261.2623290000047,261.28484999999637,261.28484999999637,262.21322219999274,b,1,0.9223658999981126,None,,,,sub-481121,001,2024-03-12_13h40.03.342,stroop_test,2023.2.3,None,2024-03-12 13h40.28.162819 +0100,
,,,,,,,,blau,yellow,g,0,,,,,,,,,1,8,20,7,262.2306905000005,,,,,,,,,,,,,,,,,262.2154770000052,263.42436619999353,264.23430660000304,264.21055550000165,,,,,,,,,,,,,,,,,,,,,,,,,,,,,,,,,,264.21058739999717,264.23430660000304,264.23430660000304,265.4756594999926,g,1,1.2300546000042232,None,,,,sub-481121,001,2024-03-12_13h40.03.342,stroop_test,2023.2.3,None,2024-03-12 13h40.28.162819 +0100,
,,,,,,,,rot,red,r,1,,,,,,,,,1,9,21,0,265.49307349999435,,,,,,,,,,,,,,,,,265.4774821000028,265.8400421999977,266.6530228000047,266.62983190000523,,,,,,,,,,,,,,,,,,,,,,,,,,,,,,,,,,266.62986829999136,266.6530228000047,266.6530228000047,267.23373469999933,r,1,0.5793492999946466,None,,,,sub-481121,001,2024-03-12_13h40.03.342,stroop_test,2023.2.3,None,2024-03-12 13h40.28.162819 +0100,
,,,,,,,,rot,red,r,1,,,,,,,,,1,10,22,1,267.25108639999235,,,,,,,,,,,,,,,,,267.235196499998,267.3390175999957,268.14699480000127,268.12877260000096,,,,,,,,,,,,,,,,,,,,,,,,,,,,,,,,,,268.1288048999995,268.14699480000127,268.14699480000127,268.6417880999943,r,1,0.49040700000477955,None,,,,sub-481121,001,2024-03-12_13h40.03.342,stroop_test,2023.2.3,None,2024-03-12 13h40.28.162819 +0100,
,,,,,,,,gelb,yellow,g,1,,,,,,,,,1,11,23,10,268.65910689999873,,,,,,,,,,,,,,,,,268.6434111999988,269.0027845000004,269.8180352999916,269.7960214999912,,,,,,,,,,,,,,,,,,,,,,,,,,,,,,,,,,269.7960522999929,269.8180352999916,269.8180352999916,270.4071251999994,g,1,0.5783877999929246,None,,,,sub-481121,001,2024-03-12_13h40.03.342,stroop_test,2023.2.3,None,2024-03-12 13h40.28.162819 +0100,
,,,,,,,,rot,red,r,1,,,,,,,,,2,0,24,0,270.42599000000337,,,,,,,,,,,,,,,,,270.4086812000023,271.62448250000307,272.43481999999494,272.4128688000055,,,,,,,,,,,,,,,,,,,,,,,,,,,,,,,,,,272.41290120000485,272.43481999999494,272.43481999999494,273.0304047999962,r,1,0.5924355000024661,None,,,,sub-481121,001,2024-03-12_13h40.03.342,stroop_test,2023.2.3,None,2024-03-12 13h40.28.162819 +0100,
,,,,,,,,rot,yellow,g,0,,,,,,,,,2,1,25,3,273.0473195999948,,,,,,,,,,,,,,,,,273.0321297000046,273.13919420000457,273.9503255000018,273.9317441000021,,,,,,,,,,,,,,,,,,,,,,,,,,,,,,,,,,273.9317746000015,273.9503255000018,273.9503255000018,275.14278520000516,g,1,1.173818700000993,None,,,,sub-481121,001,2024-03-12_13h40.03.342,stroop_test,2023.2.3,None,2024-03-12 13h40.28.162819 +0100,
,,,,,,,,gelb,blue,b,0,,,,,,,,,2,2,26,9,275.1593050999945,,,,,,,,,,,,,,,,,275.1443831999932,276.3630247999972,277.1893982000038,277.1653054000053,,,,,,,,,,,,,,,,,,,,,,,,,,,,,,,,,,277.1653382999939,277.1893982000038,277.1893982000038,278.25787980000314,b,1,1.0598490000120364,None,,,,sub-481121,001,2024-03-12_13h40.03.342,stroop_test,2023.2.3,None,2024-03-12 13h40.28.162819 +0100,
,,,,,,,,blau,yellow,g,0,,,,,,,,,2,3,27,7,278.2762326999946,,,,,,,,,,,,,,,,,278.25949219999893,278.3656004999939,279.1865538999991,279.1641876999929,,,,,,,,,,,,,,,,,,,,,,,,,,,,,,,,,,279.1642184999946,279.1865538999991,279.1865538999991,280.19314699999813,b,0,0.9963866000034614,None,,,,sub-481121,001,2024-03-12_13h40.03.342,stroop_test,2023.2.3,None,2024-03-12 13h40.28.162819 +0100,
,,,,,,,,gelb,red,r,0,,,,,,,,,2,4,28,8,280.21031769999536,,,,,,,,,,,,,,,,,280.1947594999947,280.29768020000483,281.122076700005,281.0981465999939,,,,,,,,,,,,,,,,,,,,,,,,,,,,,,,,,,281.09817810000095,281.122076700005,281.122076700005,282.6045171000005,r,1,1.4678620000049705,None,,,,sub-481121,001,2024-03-12_13h40.03.342,stroop_test,2023.2.3,None,2024-03-12 13h40.28.162819 +0100,
,,,,,,,,rot,blue,b,0,,,,,,,,,2,5,29,2,282.625727599996,,,,,,,,,,,,,,,,,282.6060859999998,283.811248900005,284.6287089999969,284.6063335999934,,,,,,,,,,,,,,,,,,,,,,,,,,,,,,,,,,284.6063637000043,284.6287089999969,284.6287089999969,286.04712639999343,b,1,1.4081757000094512,None,,,,sub-481121,001,2024-03-12_13h40.03.342,stroop_test,2023.2.3,None,2024-03-12 13h40.28.162819 +0100,
,,,,,,,,blau,red,r,0,,,,,,,,,2,6,30,4,286.06418790000316,,,,,,,,,,,,,,,,,286.0487404000014,286.40738989999227,287.22980610000377,287.2035079000052,,,,,,,,,,,,,,,,,,,,,,,,,,,,,,,,,,287.2035382000031,287.22980610000377,287.22980610000377,288.48661880000145,r,1,1.2529748999950243,None,,,,sub-481121,001,2024-03-12_13h40.03.342,stroop_test,2023.2.3,None,2024-03-12 13h40.28.162819 +0100,
,,,,,,,,blau,blue,b,1,,,,,,,,,2,7,31,6,288.50509720000264,,,,,,,,,,,,,,,,,288.488133699997,289.6979424000019,290.50988280000456,290.49170099999174,,,,,,,,,,,,,,,,,,,,,,,,,,,,,,,,,,290.49173169999267,290.50988280000456,290.50988280000456,291.1982296999922,b,1,0.6848151000012876,None,,,,sub-481121,001,2024-03-12_13h40.03.342,stroop_test,2023.2.3,None,2024-03-12 13h40.28.162819 +0100,
,,,,,,,,rot,red,r,1,,,,,,,,,2,8,32,1,291.21644129999913,,,,,,,,,,,,,,,,,291.19974349999393,291.55261879999307,292.3616810999956,292.3393100999965,,,,,,,,,,,,,,,,,,,,,,,,,,,,,,,,,,292.3393400999921,292.3616810999956,292.3616810999956,293.0550186000037,r,1,0.6750680000113789,None,,,,sub-481121,001,2024-03-12_13h40.03.342,stroop_test,2023.2.3,None,2024-03-12 13h40.28.162819 +0100,
,,,,,,,,gelb,yellow,g,1,,,,,,,,,2,9,33,10,293.0737386999972,,,,,,,,,,,,,,,,,293.0565037000051,293.4199321999913,294.2411032999953,294.2187200000044,,,,,,,,,,,,,,,,,,,,,,,,,,,,,,,,,,294.21876200000406,294.2411032999953,294.2411032999953,294.8444412999961,g,1,0.5828172999899834,None,,,,sub-481121,001,2024-03-12_13h40.03.342,stroop_test,2023.2.3,None,2024-03-12 13h40.28.162819 +0100,
,,,,,,,,gelb,yellow,g,1,,,,,,,,,2,10,34,11,294.8610115000047,,,,,,,,,,,,,,,,,294.84605120000197,294.94765129999723,295.7622971999954,295.7446645000018,,,,,,,,,,,,,,,,,,,,,,,,,,,,,,,,,,295.7446975999919,295.7622971999954,295.7622971999954,296.5482350999955,g,1,0.7824919999984559,None,,,,sub-481121,001,2024-03-12_13h40.03.342,stroop_test,2023.2.3,None,2024-03-12 13h40.28.162819 +0100,
,,,,,,,,blau,blue,b,1,,,,,,,,,2,11,35,5,296.5660860999924,,,,,,,,,,,,,,,,,296.5496992999979,296.6526831999945,297.4657370999921,297.4424740999966,,,,,,,,,,,,,,,,,,,,,,,,,,,,,,,,,,297.44252119999146,297.4657370999921,297.4657370999921,298.2693162999931,b,1,0.7920860000012908,None,,,,sub-481121,001,2024-03-12_13h40.03.342,stroop_test,2023.2.3,None,2024-03-12 13h40.28.162819 +0100,
,,,,,,,,gelb,yellow,g,1,,,,,,,,,3,0,36,11,298.28779990000476,,,,,,,,,,,,,,,,,298.2707997999969,299.07821310000145,299.891461399995,299.8673887000041,,,,,,,,,,,,,,,,,,,,,,,,,,,,,,,,,,299.8674208000011,299.891461399995,299.891461399995,300.40133359999163,g,1,0.508377100006328,None,,,,sub-481121,001,2024-03-12_13h40.03.342,stroop_test,2023.2.3,None,2024-03-12 13h40.28.162819 +0100,
,,,,,,,,blau,blue,b,1,,,,,,,,,3,1,37,5,300.41923070000485,,,,,,,,,,,,,,,,,300.40280310000526,300.50615479999396,301.3194838999916,301.2970484999969,,,,,,,,,,,,,,,,,,,,,,,,,,,,,,,,,,301.2970814,301.3194838999916,301.3194838999916,302.1254845999938,b,1,0.7914922000054503,None,,,,sub-481121,001,2024-03-12_13h40.03.342,stroop_test,2023.2.3,None,2024-03-12 13h40.28.162819 +0100,
,,,,,,,,gelb,blue,b,0,,,,,,,,,3,2,38,9,302.14732150000054,,,,,,,,,,,,,,,,,302.13208609999856,302.2376571999921,303.0501699000015,303.02723989999504,,,,,,,,,,,,,,,,,,,,,,,,,,,,,,,,,,303.027270599996,303.0501699000015,303.0501699000015,303.5568789999961,b,1,0.5007989000005182,None,,,,sub-481121,001,2024-03-12_13h40.03.342,stroop_test,2023.2.3,None,2024-03-12 13h40.28.162819 +0100,
,,,,,,,,gelb,yellow,g,1,,,,,,,,,3,3,39,10,303.5753107999917,,,,,,,,,,,,,,,,,303.5583825999929,304.7744587999914,305.5799085000035,305.5624051999912,,,,,,,,,,,,,,,,,,,,,,,,,,,,,,,,,,305.5624378999928,305.5799085000035,305.5799085000035,306.1653359000047,g,1,0.5679285999940475,None,,,,sub-481121,001,2024-03-12_13h40.03.342,stroop_test,2023.2.3,None,2024-03-12 13h40.28.162819 +0100,
,,,,,,,,blau,blue,b,1,,,,,,,,,3,4,40,6,306.1826954999997,,,,,,,,,,,,,,,,,306.1668064999976,306.52447839999513,307.34256779999123,307.3190648000018,,,,,,,,,,,,,,,,,,,,,,,,,,,,,,,,,,307.3190961999935,307.34256779999123,307.34256779999123,307.8646963999927,g,0,0.5192061999987345,None,,,,sub-481121,001,2024-03-12_13h40.03.342,stroop_test,2023.2.3,None,2024-03-12 13h40.28.162819 +0100,
,,,,,,,,rot,blue,b,0,,,,,,,,,3,5,41,2,307.88278569999966,,,,,,,,,,,,,,,,,307.8662078000052,308.22582669999974,309.0402291999926,309.0180079999991,,,,,,,,,,,,,,,,,,,,,,,,,,,,,,,,,,309.0180393000046,309.0402291999926,309.0402291999926,309.9810620999924,b,1,0.9296002000046428,None,,,,sub-481121,001,2024-03-12_13h40.03.342,stroop_test,2023.2.3,None,2024-03-12 13h40.28.162819 +0100,
,,,,,,,,rot,red,r,1,,,,,,,,,3,6,42,1,309.9990020999976,,,,,,,,,,,,,,,,,309.98253419999673,310.34207620000234,311.14942139999766,311.1306259999983,,,,,,,,,,,,,,,,,,,,,,,,,,,,,,,,,,311.1306575000053,311.14942139999766,311.14942139999766,311.7141349000012,r,1,0.5627203000040026,None,,,,sub-481121,001,2024-03-12_13h40.03.342,stroop_test,2023.2.3,None,2024-03-12 13h40.28.162819 +0100,
,,,,,,,,blau,red,r,0,,,,,,,,,3,7,43,4,311.73117299999285,,,,,,,,,,,,,,,,,311.7159654999996,312.5343170999986,313.3596178000007,313.3368666000024,,,,,,,,,,,,,,,,,,,,,,,,,,,,,,,,,,313.33689819999563,313.3596178000007,313.3596178000007,314.19482950000383,r,1,0.8244306000124197,None,,,,sub-481121,001,2024-03-12_13h40.03.342,stroop_test,2023.2.3,None,2024-03-12 13h40.28.162819 +0100,
,,,,,,,,gelb,red,r,0,,,,,,,,,3,8,44,8,314.2117159000045,,,,,,,,,,,,,,,,,314.1964624999964,314.3017153999972,315.1163458999945,315.0858401000005,,,,,,,,,,,,,,,,,,,,,,,,,,,,,,,,,,315.08587019999686,315.1163458999945,315.1163458999945,315.5725594999967,r,1,0.4397257999953581,None,,,,sub-481121,001,2024-03-12_13h40.03.342,stroop_test,2023.2.3,None,2024-03-12 13h40.28.162819 +0100,
,,,,,,,,rot,red,r,1,,,,,,,,,3,9,45,0,315.59065389999887,,,,,,,,,,,,,,,,,315.57410230000096,315.677148200004,316.48816349999106,316.46211429999676,,,,,,,,,,,,,,,,,,,,,,,,,,,,,,,,,,316.46214590000454,316.48816349999106,316.48816349999106,316.9448784999986,r,1,0.4491876999964006,None,,,,sub-481121,001,2024-03-12_13h40.03.342,stroop_test,2023.2.3,None,2024-03-12 13h40.28.162819 +0100,
,,,,,,,,blau,yellow,g,0,,,,,,,,,3,10,46,7,316.96213179999904,,,,,,,,,,,,,,,,,316.94679370000085,317.7511378000054,318.5591618000035,318.5351823999954,,,,,,,,,,,,,,,,,,,,,,,,,,,,,,,,,,318.53521210000326,318.5591618000035,318.5591618000035,318.9595132999966,g,1,0.3898734999966109,None,,,,sub-481121,001,2024-03-12_13h40.03.342,stroop_test,2023.2.3,None,2024-03-12 13h40.28.162819 +0100,
,,,,,,,,rot,yellow,g,0,,,,,,,,,3,11,47,3,318.97692760000064,,,,,,,,,,,,,,,,,318.9612429999979,319.774860000005,320.5928867000039,320.56936999999743,,,,,,,,,,,,,,,,,,,,,,,,,,,,,,,,,,320.5694019999937,320.5928867000039,320.5928867000039,321.0154798000003,g,1,0.4017989999993006,None,,,,sub-481121,001,2024-03-12_13h40.03.342,stroop_test,2023.2.3,None,2024-03-12 13h40.28.162819 +0100,
,,,,,,,,rot,blue,b,0,,,,,,,,,4,0,48,2,321.03298319999885,,,,,,,,,,,,,,,,,321.01702650000516,321.3828705000051,322.19403410000086,322.1768817999982,,,,,,,,,,,,,,,,,,,,,,,,,,,,,,,,,,322.17691399999603,322.19403410000086,322.19403410000086,322.9205001999944,b,1,0.7052183000050718,None,,,,sub-481121,001,2024-03-12_13h40.03.342,stroop_test,2023.2.3,None,2024-03-12 13h40.28.162819 +0100,
,,,,,,,,gelb,blue,b,0,,,,,,,,,4,1,49,9,322.93836060000467,,,,,,,,,,,,,,,,,322.9220165000006,323.73450160000357,324.5464406999963,324.5238141000009,,,,,,,,,,,,,,,,,,,,,,,,,,,,,,,,,,324.52384419999726,324.5464406999963,324.5464406999963,324.9253536000033,b,1,0.36492249999719206,None,,,,sub-481121,001,2024-03-12_13h40.03.342,stroop_test,2023.2.3,None,2024-03-12 13h40.28.162819 +0100,
,,,,,,,,blau,blue,b,1,,,,,,,,,4,2,50,6,324.9437925999955,,,,,,,,,,,,,,,,,324.92704769999546,325.7277177999931,326.53635609999765,326.51349050000135,,,,,,,,,,,,,,,,,,,,,,,,,,,,,,,,,,326.51352389999374,326.53635609999765,326.53635609999765,326.9699840999965,b,1,0.41473499999847263,None,,,,sub-481121,001,2024-03-12_13h40.03.342,stroop_test,2023.2.3,None,2024-03-12 13h40.28.162819 +0100,
,,,,,,,,blau,red,r,0,,,,,,,,,4,3,51,4,326.9877512999956,,,,,,,,,,,,,,,,,326.971449100005,327.77424519999477,328.5773216999951,328.5593444999977,,,,,,,,,,,,,,,,,,,,,,,,,,,,,,,,,,328.55939399999625,328.5773216999951,328.5773216999951,329.1486573000002,r,1,0.5649796999932732,None,,,,sub-481121,001,2024-03-12_13h40.03.342,stroop_test,2023.2.3,None,2024-03-12 13h40.28.162819 +0100,
,,,,,,,,gelb,yellow,g,1,,,,,,,,,4,4,52,10,329.1654426000023,,,,,,,,,,,,,,,,,329.1503559999983,329.2557889000018,330.0718111000024,330.0480510000052,,,,,,,,,,,,,,,,,,,,,,,,,,,,,,,,,,330.04808229999617,330.0718111000024,330.0718111000024,330.82520300000033,g,1,0.7512931999954162,None,,,,sub-481121,001,2024-03-12_13h40.03.342,stroop_test,2023.2.3,None,2024-03-12 13h40.28.162819 +0100,
,,,,,,,,rot,red,r,1,,,,,,,,,4,5,53,1,330.8424148000049,,,,,,,,,,,,,,,,,330.82707309999387,331.19234049999795,332.0044193999929,331.9808527999994,,,,,,,,,,,,,,,,,,,,,,,,,,,,,,,,,,331.980885500001,332.0044193999929,332.0044193999929,332.5960384999926,r,1,0.5887083999987226,None,,,,sub-481121,001,2024-03-12_13h40.03.342,stroop_test,2023.2.3,None,2024-03-12 13h40.28.162819 +0100,
,,,,,,,,rot,yellow,g,0,,,,,,,,,4,6,54,3,332.61306859999604,,,,,,,,,,,,,,,,,332.5976770999987,333.8104599999933,334.61770040000556,334.5986893999943,,,,,,,,,,,,,,,,,,,,,,,,,,,,,,,,,,334.5987210000021,334.61770040000556,334.61770040000556,335.4481631999952,g,1,0.8149527000059607,None,,,,sub-481121,001,2024-03-12_13h40.03.342,stroop_test,2023.2.3,None,2024-03-12 13h40.28.162819 +0100,
,,,,,,,,rot,red,r,1,,,,,,,,,4,7,55,0,335.4658838000032,,,,,,,,,,,,,,,,,335.44964350000373,335.80962369999907,336.6217850999965,336.6029436999961,,,,,,,,,,,,,,,,,,,,,,,,,,,,,,,,,,336.60297389999323,336.6217850999965,336.6217850999965,337.4442970999953,r,1,0.809095000004163,None,,,,sub-481121,001,2024-03-12_13h40.03.342,stroop_test,2023.2.3,None,2024-03-12 13h40.28.162819 +0100,
,,,,,,,,gelb,yellow,g,1,,,,,,,,,4,8,56,11,337.4616735000018,,,,,,,,,,,,,,,,,337.4459496000054,337.5491753999959,338.363677500005,338.3399931000022,,,,,,,,,,,,,,,,,,,,,,,,,,,,,,,,,,338.34002489999693,338.363677500005,338.363677500005,338.951822899995,g,1,0.5816846000088844,None,,,,sub-481121,001,2024-03-12_13h40.03.342,stroop_test,2023.2.3,None,2024-03-12 13h40.28.162819 +0100,
,,,,,,,,gelb,red,r,0,,,,,,,,,4,9,57,8,338.969881099998,,,,,,,,,,,,,,,,,338.9533257000003,339.7581752999977,340.57627570000477,340.5586039000045,,,,,,,,,,,,,,,,,,,,,,,,,,,,,,,,,,340.5586350999947,340.57627570000477,340.57627570000477,341.63360580000153,r,1,1.044211800006451,None,,,,sub-481121,001,2024-03-12_13h40.03.342,stroop_test,2023.2.3,None,2024-03-12 13h40.28.162819 +0100,
,,,,,,,,blau,yellow,g,0,,,,,,,,,4,10,58,7,341.65158769999107,,,,,,,,,,,,,,,,,341.6350966000027,342.83918979999726,343.6632731999998,343.638598599995,,,,,,,,,,,,,,,,,,,,,,,,,,,,,,,,,,343.63863099999435,343.6632731999998,343.6632731999998,344.4311340999993,g,1,0.749222300000838,None,,,,sub-481121,001,2024-03-12_13h40.03.342,stroop_test,2023.2.3,None,2024-03-12 13h40.28.162819 +0100,
,,,,,,,,blau,blue,b,1,,,,,,,,,4,11,59,5,344.4485781999974,,,,,,,,,,,,,,,,,344.4326657999918,345.6390096999967,346.4560066999984,346.43671789999644,,,,,,,,,,,,,,,,,,,,,,,,,,,,,,,,,,346.4367484999966,346.4560066999984,346.4560066999984,347.0418740000023,b,1,0.5683603999932529,None,,,,sub-481121,001,2024-03-12_13h40.03.342,stroop_test,2023.2.3,None,2024-03-12 13h40.28.162819 +0100,
,,,,,,,,blau,blue,b,1,,,,,,,,,5,0,60,6,347.0591671000002,,,,,,,,,,,,,,,,,347.04369289999886,347.1496795999992,347.96932269999525,347.9505152999918,,,,,,,,,,,,,,,,,,,,,,,,,,,,,,,,,,347.95054629999504,347.96932269999525,347.96932269999525,348.47274800000014,b,1,0.4744802999921376,None,,,,sub-481121,001,2024-03-12_13h40.03.342,stroop_test,2023.2.3,None,2024-03-12 13h40.28.162819 +0100,
,,,,,,,,rot,red,r,1,,,,,,,,,5,1,61,1,348.49301540000306,,,,,,,,,,,,,,,,,348.4742106999911,349.68990319999284,350.500973000002,350.4789527999965,,,,,,,,,,,,,,,,,,,,,,,,,,,,,,,,,,350.47898529999657,350.500973000002,350.500973000002,351.13767939999525,r,1,0.6291645000019344,None,,,,sub-481121,001,2024-03-12_13h40.03.342,stroop_test,2023.2.3,None,2024-03-12 13h40.28.162819 +0100,
,,,,,,,,rot,red,r,1,,,,,,,,,5,2,62,0,351.15610399999423,,,,,,,,,,,,,,,,,351.1391573000001,351.50255249999464,352.31049649999477,352.2927403999929,,,,,,,,,,,,,,,,,,,,,,,,,,,,,,,,,,352.2927886999969,352.31049649999477,352.31049649999477,352.929541000005,r,1,0.6091443000041181,None,,,,sub-481121,001,2024-03-12_13h40.03.342,stroop_test,2023.2.3,None,2024-03-12 13h40.28.162819 +0100,
,,,,,,,,gelb,blue,b,0,,,,,,,,,5,3,63,9,352.9467414999963,,,,,,,,,,,,,,,,,352.9312931000022,354.141148900002,354.9544847999932,354.9320054999989,,,,,,,,,,,,,,,,,,,,,,,,,,,,,,,,,,354.9320425000042,354.9544847999932,354.9544847999932,355.7190369000018,b,1,0.7512515999987954,None,,,,sub-481121,001,2024-03-12_13h40.03.342,stroop_test,2023.2.3,None,2024-03-12 13h40.28.162819 +0100,
,,,,,,,,blau,blue,b,1,,,,,,,,,5,4,64,5,355.73742689999926,,,,,,,,,,,,,,,,,355.7205055999948,356.0797726000019,356.8892823999922,356.8657977999974,,,,,,,,,,,,,,,,,,,,,,,,,,,,,,,,,,356.8658276999922,356.8892823999922,356.8892823999922,357.36103359999834,b,1,0.45037229999434203,None,,,,sub-481121,001,2024-03-12_13h40.03.342,stroop_test,2023.2.3,None,2024-03-12 13h40.28.162819 +0100,
,,,,,,,,blau,red,r,0,,,,,,,,,5,5,65,4,357.377708,,,,,,,,,,,,,,,,,357.3626440999942,358.57497760000115,359.383820300005,359.36518700000306,,,,,,,,,,,,,,,,,,,,,,,,,,,,,,,,,,359.36521649999486,359.383820300005,359.383820300005,360.0137599000009,r,1,0.6228783000115072,None,,,,sub-481121,001,2024-03-12_13h40.03.342,stroop_test,2023.2.3,None,2024-03-12 13h40.28.162819 +0100,
,,,,,,,,rot,yellow,g,0,,,,,,,,,5,6,66,3,360.03077949999715,,,,,,,,,,,,,,,,,360.01544339999964,360.1248908999987,360.948456099999,360.9253710000048,,,,,,,,,,,,,,,,,,,,,,,,,,,,,,,,,,360.9254132999922,360.948456099999,360.948456099999,361.4874836999952,g,1,0.5370535999973072,None,,,,sub-481121,001,2024-03-12_13h40.03.342,stroop_test,2023.2.3,None,2024-03-12 13h40.28.162819 +0100,
,,,,,,,,gelb,red,r,0,,,,,,,,,5,7,67,8,361.5058521000028,,,,,,,,,,,,,,,,,361.48900849999336,361.5942020999937,362.40970299999753,362.37944940000307,,,,,,,,,,,,,,,,,,,,,,,,,,,,,,,,,,362.37949949999165,362.40970299999753,362.40970299999753,363.33216239999456,r,1,0.9209929999924498,None,,,,sub-481121,001,2024-03-12_13h40.03.342,stroop_test,2023.2.3,None,2024-03-12 13h40.28.162819 +0100,
,,,,,,,,gelb,yellow,g,1,,,,,,,,,5,8,68,10,363.35012740000093,,,,,,,,,,,,,,,,,363.3336929999932,364.5428660000034,365.35885209999105,365.3400010000041,,,,,,,,,,,,,,,,,,,,,,,,,,,,,,,,,,365.34003150000353,365.35885209999105,365.35885209999105,365.9509418999951,g,1,0.5897204000066267,None,,,,sub-481121,001,2024-03-12_13h40.03.342,stroop_test,2023.2.3,None,2024-03-12 13h40.28.162819 +0100,
,,,,,,,,blau,yellow,g,0,,,,,,,,,5,9,69,7,365.9689961999975,,,,,,,,,,,,,,,,,365.95243999999366,366.31138129999454,367.13434989999223,367.1114550999919,,,,,,,,,,,,,,,,,,,,,,,,,,,,,,,,,,367.1114885999996,367.13434989999223,367.13434989999223,367.71022759999323,g,1,0.5704380000097444,None,,,,sub-481121,001,2024-03-12_13h40.03.342,stroop_test,2023.2.3,None,2024-03-12 13h40.28.162819 +0100,
,,,,,,,,rot,blue,b,0,,,,,,,,,5,10,70,2,367.72746239999833,,,,,,,,,,,,,,,,,367.7118904999952,367.8135777999996,368.63116699999955,368.60906269999396,,,,,,,,,,,,,,,,,,,,,,,,,,,,,,,,,,368.6091078000027,368.63116699999955,368.63116699999955,369.4398433000024,b,1,0.7935406000033254,None,,,,sub-481121,001,2024-03-12_13h40.03.342,stroop_test,2023.2.3,None,2024-03-12 13h40.28.162819 +0100,
,,,,,,,,gelb,yellow,g,1,,,,,,,,,5,11,71,11,369.4579386999976,,,,,,,,,,,,,,,,,369.4413113000046,370.2633668000053,371.0818728000013,371.0589095000032,,,,,,,,,,,,,,,,,,,,,,,,,,,,,,,,,,371.0589578999934,371.0818728000013,371.0818728000013,372.2774161999987,g,1,1.180213100000401,None,,,,sub-481121,001,2024-03-12_13h40.03.342,stroop_test,2023.2.3,None,2024-03-12 13h40.28.162819 +0100,
,,,,,,,,rot,red,r,1,,,,,,,,,6,0,72,1,372.29419299999427,,,,,,,,,,,,,,,,,372.27903059999517,373.0948105999996,373.91826520000177,373.8955857999972,,,,,,,,,,,,,,,,,,,,,,,,,,,,,,,,,,373.8956193999911,373.91826520000177,373.91826520000177,374.4691269000032,r,1,0.5347905999951763,None,,,,sub-481121,001,2024-03-12_13h40.03.342,stroop_test,2023.2.3,None,2024-03-12 13h40.28.162819 +0100,
,,,,,,,,blau,blue,b,1,,,,,,,,,6,1,73,5,374.4865182999929,,,,,,,,,,,,,,,,,374.47058639999887,374.8297847999929,375.64915199999814,375.62432770000305,,,,,,,,,,,,,,,,,,,,,,,,,,,,,,,,,,375.62435939999705,375.64915199999814,375.64915199999814,376.18245249999745,b,1,0.5279535000008764,None,,,,sub-481121,001,2024-03-12_13h40.03.342,stroop_test,2023.2.3,None,2024-03-12 13h40.28.162819 +0100,
,,,,,,,,blau,yellow,g,0,,,,,,,,,6,2,74,7,376.2005247000052,,,,,,,,,,,,,,,,,376.1839972000016,376.2881759000011,377.09367020000354,377.0756737000047,,,,,,,,,,,,,,,,,,,,,,,,,,,,,,,,,,377.07572389999405,377.09367020000354,377.09367020000354,377.71304869999585,r,0,0.6036064000072656,None,,,,sub-481121,001,2024-03-12_13h40.03.342,stroop_test,2023.2.3,None,2024-03-12 13h40.28.162819 +0100,
,,,,,,,,rot,red,r,1,,,,,,,,,6,3,75,0,377.730172399999,,,,,,,,,,,,,,,,,377.71467770000163,378.52503999999317,379.3332168999914,379.3114473000023,,,,,,,,,,,,,,,,,,,,,,,,,,,,,,,,,,379.3114812999993,379.3332168999914,379.3332168999914,380.20374929999525,r,1,0.8668669000035152,None,,,,sub-481121,001,2024-03-12_13h40.03.342,stroop_test,2023.2.3,None,2024-03-12 13h40.28.162819 +0100,
,,,,,,,,blau,blue,b,1,,,,,,,,,6,4,76,6,380.2221142000053,,,,,,,,,,,,,,,,,380.2052374999912,380.30756230000407,381.13196899999457,381.10428289999254,,,,,,,,,,,,,,,,,,,,,,,,,,,,,,,,,,381.10431339999195,381.13196899999457,381.13196899999457,381.7945614999917,b,1,0.6541639000060968,None,,,,sub-481121,001,2024-03-12_13h40.03.342,stroop_test,2023.2.3,None,2024-03-12 13h40.28.162819 +0100,
,,,,,,,,rot,yellow,g,0,,,,,,,,,6,5,77,3,381.81117250000534,,,,,,,,,,,,,,,,,381.79623469999933,382.15622710000025,382.9704153999919,382.9471756999992,,,,,,,,,,,,,,,,,,,,,,,,,,,,,,,,,,382.94720969999616,382.9704153999919,382.9704153999919,384.48147299999255,g,1,1.492658000002848,None,,,,sub-481121,001,2024-03-12_13h40.03.342,stroop_test,2023.2.3,None,2024-03-12 13h40.28.162819 +0100,
,,,,,,,,gelb,yellow,g,1,,,,,,,,,6,6,78,11,384.4982464999921,,,,,,,,,,,,,,,,,384.48338910000166,384.58887789999426,385.4052546000021,385.3727140999981,,,,,,,,,,,,,,,,,,,,,,,,,,,,,,,,,,385.3727448999998,385.4052546000021,385.4052546000021,385.9944189999951,g,1,0.5745908999961102,None,,,,sub-481121,001,2024-03-12_13h40.03.342,stroop_test,2023.2.3,None,2024-03-12 13h40.28.162819 +0100,
,,,,,,,,gelb,yellow,g,1,,,,,,,,,6,7,79,10,386.01118970000243,,,,,,,,,,,,,,,,,385.9961258999974,386.101070100005,386.9105595000001,386.89231579999614,,,,,,,,,,,,,,,,,,,,,,,,,,,,,,,,,,386.89236129999335,386.9105595000001,386.9105595000001,387.39849039999535,g,1,0.47522490000119433,None,,,,sub-481121,001,2024-03-12_13h40.03.342,stroop_test,2023.2.3,None,2024-03-12 13h40.28.162819 +0100,
,,,,,,,,blau,red,r,0,,,,,,,,,6,8,80,4,387.41586429999734,,,,,,,,,,,,,,,,,387.400304099996,387.76078129999223,388.57601910000085,388.5533912999963,,,,,,,,,,,,,,,,,,,,,,,,,,,,,,,,,,388.55342119999113,388.57601910000085,388.57601910000085,389.30763870000374,r,1,0.7197639999940293,None,,,,sub-481121,001,2024-03-12_13h40.03.342,stroop_test,2023.2.3,None,2024-03-12 13h40.28.162819 +0100,
,,,,,,,,gelb,blue,b,0,,,,,,,,,6,9,81,9,389.3252943999978,,,,,,,,,,,,,,,,,389.3093391000002,389.4103873999993,390.21991739999794,390.19460550000076,,,,,,,,,,,,,,,,,,,,,,,,,,,,,,,,,,390.1946368999925,390.21991739999794,390.21991739999794,390.8689546999958,b,1,0.6403521000029286,None,,,,sub-481121,001,2024-03-12_13h40.03.342,stroop_test,2023.2.3,None,2024-03-12 13h40.28.162819 +0100,
,,,,,,,,gelb,red,r,0,,,,,,,,,6,10,82,8,390.8875873999932,,,,,,,,,,,,,,,,,390.8704676000052,391.68563330000325,392.4993059999979,392.4817180999962,,,,,,,,,,,,,,,,,,,,,,,,,,,,,,,,,,392.48175069999706,392.4993059999979,392.4993059999979,394.883925999995,g,0,2.371708899998339,None,,,,sub-481121,001,2024-03-12_13h40.03.342,stroop_test,2023.2.3,None,2024-03-12 13h40.28.162819 +0100,
,,,,,,,,rot,blue,b,0,,,,,,,,,6,11,83,2,394.90183499999694,,,,,,,,,,,,,,,,,394.885374599995,395.2479741999996,396.05762730000424,396.03366459999233,,,,,,,,,,,,,,,,,,,,,,,,,,,,,,,,,,396.0336943000002,396.05762730000424,396.05762730000424,398.1678108000051,b,1,2.1053810000012163,None,,,,sub-481121,001,2024-03-12_13h40.03.342,stroop_test,2023.2.3,None,2024-03-12 13h40.28.162819 +0100,
,,,,,,,,rot,red,r,1,,,,,,,,,7,0,84,1,398.1855482999963,,,,,,,,,,,,,,,,,398.1692774999974,398.98365369999374,399.80415929999435,399.7852644999948,,,,,,,,,,,,,,,,,,,,,,,,,,,,,,,,,,399.78529400000116,399.80415929999435,399.80415929999435,400.41614539999864,r,1,0.6096547999914037,None,,,,sub-481121,001,2024-03-12_13h40.03.342,stroop_test,2023.2.3,None,2024-03-12 13h40.28.162819 +0100,
,,,,,,,,gelb,yellow,g,1,,,,,,,,,7,1,85,10,400.4342423000053,,,,,,,,,,,,,,,,,400.41762480000034,401.622503599996,402.4343661000021,402.4123424999998,,,,,,,,,,,,,,,,,,,,,,,,,,,,,,,,,,402.41237599999295,402.4343661000021,402.4343661000021,403.06175639999856,g,1,0.6084744999971008,None,,,,sub-481121,001,2024-03-12_13h40.03.342,stroop_test,2023.2.3,None,2024-03-12 13h40.28.162819 +0100,
,,,,,,,,rot,red,r,1,,,,,,,,,7,2,86,0,403.0777148000052,,,,,,,,,,,,,,,,,403.0632148000004,404.2745295999921,405.09308579999197,405.0700649999926,,,,,,,,,,,,,,,,,,,,,,,,,,,,,,,,,,405.0700945999997,405.09308579999197,405.09308579999197,405.8009596000047,r,1,0.6896531000093091,None,,,,sub-481121,001,2024-03-12_13h40.03.342,stroop_test,2023.2.3,None,2024-03-12 13h40.28.162819 +0100,
,,,,,,,,gelb,red,r,0,,,,,,,,,7,3,87,8,405.8184248000034,,,,,,,,,,,,,,,,,405.80241789999127,406.1591000000044,406.97449680000136,406.9505424999952,,,,,,,,,,,,,,,,,,,,,,,,,,,,,,,,,,406.9505727999931,406.97449680000136,406.97449680000136,407.5730002000055,r,1,0.5910262999968836,None,,,,sub-481121,001,2024-03-12_13h40.03.342,stroop_test,2023.2.3,None,2024-03-12 13h40.28.162819 +0100,
,,,,,,,,blau,blue,b,1,,,,,,,,,7,4,88,5,407.5916614000016,,,,,,,,,,,,,,,,,407.5744861999992,407.6798351000034,408.5007217999955,408.4772670999955,,,,,,,,,,,,,,,,,,,,,,,,,,,,,,,,,,408.47730169999704,408.5007217999955,408.5007217999955,409.09436590000405,b,1,0.5857722999935504,None,,,,sub-481121,001,2024-03-12_13h40.03.342,stroop_test,2023.2.3,None,2024-03-12 13h40.28.162819 +0100,
,,,,,,,,blau,red,r,0,,,,,,,,,7,5,89,4,409.11159159999806,,,,,,,,,,,,,,,,,409.0960519999935,409.9076927999995,410.7192403999943,410.70051159999275,,,,,,,,,,,,,,,,,,,,,,,,,,,,,,,,,,410.7005407999968,410.7192403999943,410.7192403999943,411.45579959999304,r,1,0.7321227999927942,None,,,,sub-481121,001,2024-03-12_13h40.03.342,stroop_test,2023.2.3,None,2024-03-12 13h40.28.162819 +0100,
,,,,,,,,blau,blue,b,1,,,,,,,,,7,6,90,6,411.47679349999817,,,,,,,,,,,,,,,,,411.4573514999938,411.80910149999545,412.61385449999943,412.5957398000028,,,,,,,,,,,,,,,,,,,,,,,,,,,,,,,,,,412.59577319999516,412.61385449999943,412.61385449999943,413.26842949999264,b,1,0.6405283000058262,None,,,,sub-481121,001,2024-03-12_13h40.03.342,stroop_test,2023.2.3,None,2024-03-12 13h40.28.162819 +0100,
,,,,,,,,blau,yellow,g,0,,,,,,,,,7,7,91,7,413.28665439999895,,,,,,,,,,,,,,,,,413.2698995999963,414.4829471999983,415.2989282000053,415.2799038999947,,,,,,,,,,,,,,,,,,,,,,,,,,,,,,,,,,415.27993390000483,415.2989282000053,415.2989282000053,415.9640992999921,g,1,0.6585825999936787,None,,,,sub-481121,001,2024-03-12_13h40.03.342,stroop_test,2023.2.3,None,2024-03-12 13h40.28.162819 +0100,
,,,,,,,,gelb,yellow,g,1,,,,,,,,,7,8,92,11,415.9814303000021,,,,,,,,,,,,,,,,,415.9660139000043,417.1744219999964,417.9926916999975,417.97006360000523,,,,,,,,,,,,,,,,,,,,,,,,,,,,,,,,,,417.9700950999977,417.9926916999975,417.9926916999975,418.4244481999922,g,1,0.41550559998722747,None,,,,sub-481121,001,2024-03-12_13h40.03.342,stroop_test,2023.2.3,None,2024-03-12 13h40.28.162819 +0100,
,,,,,,,,rot,blue,b,0,,,,,,,,,7,9,93,2,418.44277539999166,,,,,,,,,,,,,,,,,418.42601009999635,418.78932159999385,419.60908379999455,419.58608910000476,,,,,,,,,,,,,,,,,,,,,,,,,,,,,,,,,,419.58611979999114,419.60908379999455,419.60908379999455,420.61419880000176,b,1,0.995106799993664,None,,,,sub-481121,001,2024-03-12_13h40.03.342,stroop_test,2023.2.3,None,2024-03-12 13h40.28.162819 +0100,
,,,,,,,,rot,yellow,g,0,,,,,,,,,7,10,94,3,420.63130520000414,,,,,,,,,,,,,,,,,420.61582140000246,420.72442220000084,421.5406679000007,421.52145509999536,,,,,,,,,,,,,,,,,,,,,,,,,,,,,,,,,,421.5214863000001,421.5406679000007,421.5406679000007,422.940251299995,g,1,1.389486299987766,None,,,,sub-481121,001,2024-03-12_13h40.03.342,stroop_test,2023.2.3,None,2024-03-12 13h40.28.162819 +0100,
,,,,,,,,gelb,blue,b,0,,,,,,,,,7,11,95,9,422.958652500005,,,,,,,,,,,,,,,,,422.941745899996,423.0474152999959,423.8578925000038,423.8342088999925,,,,,,,,,,,,,,,,,,,,,,,,,,,,,,,,,,423.8342377999943,423.8578925000038,423.8578925000038,424.88608569999633,b,1,1.0111020999902394,None,,,,sub-481121,001,2024-03-12_13h40.03.342,stroop_test,2023.2.3,None,2024-03-12 13h40.28.162819 +0100,
,,,,,,,,blau,blue,b,1,,,,,,,,,8,0,96,5,424.9038612000004,,,,,,,,,,,,,,,,,424.88755919999676,426.09975389999454,426.9148176000017,426.890653399998,,,,,,,,,,,,,,,,,,,,,,,,,,,,,,,,,,426.89068509999197,426.9148176000017,426.9148176000017,427.6386635999952,b,1,0.7111665000120411,None,,,,sub-481121,001,2024-03-12_13h40.03.342,stroop_test,2023.2.3,None,2024-03-12 13h40.28.162819 +0100,
,,,,,,,,gelb,yellow,g,1,,,,,,,,,8,1,97,11,427.65693149999424,,,,,,,,,,,,,,,,,427.6401821000036,428.850978699993,429.6575339999981,429.6351305999997,,,,,,,,,,,,,,,,,,,,,,,,,,,,,,,,,,429.6351608999976,429.6575339999981,429.6575339999981,430.3634616999916,g,1,0.6974401000043144,None,,,,sub-481121,001,2024-03-12_13h40.03.342,stroop_test,2023.2.3,None,2024-03-12 13h40.28.162819 +0100,
,,,,,,,,blau,yellow,g,0,,,,,,,,,8,2,98,7,430.38059919999796,,,,,,,,,,,,,,,,,430.36514959999477,431.57245479999983,432.3829215000005,432.3600502000045,,,,,,,,,,,,,,,,,,,,,,,,,,,,,,,,,,432.36008169999695,432.3829215000005,432.3829215000005,432.8133808999992,g,1,0.4160612000123365,None,,,,sub-481121,001,2024-03-12_13h40.03.342,stroop_test,2023.2.3,None,2024-03-12 13h40.28.162819 +0100,
,,,,,,,,gelb,blue,b,0,,,,,,,,,8,3,99,9,432.83309559999907,,,,,,,,,,,,,,,,,432.81719289999455,432.92448879999574,433.7322803999996,433.7104665999941,,,,,,,,,,,,,,,,,,,,,,,,,,,,,,,,,,433.71049869999115,433.7322803999996,433.7322803999996,434.6191500999994,b,1,0.8676456999965012,None,,,,sub-481121,001,2024-03-12_13h40.03.342,stroop_test,2023.2.3,None,2024-03-12 13h40.28.162819 +0100,
,,,,,,,,blau,blue,b,1,,,,,,,,,8,4,100,6,434.63722599999164,,,,,,,,,,,,,,,,,434.62061519999406,435.42441189999226,436.23967890000495,436.21273620000284,,,,,,,,,,,,,,,,,,,,,,,,,,,,,,,,,,436.2127885999944,436.23967890000495,436.23967890000495,436.73630469999625,b,1,0.4853292000043439,None,,,,sub-481121,001,2024-03-12_13h40.03.342,stroop_test,2023.2.3,None,2024-03-12 13h40.28.162819 +0100,
,,,,,,,,blau,red,r,0,,,,,,,,,8,5,101,4,436.75899099999515,,,,,,,,,,,,,,,,,436.7377542000031,437.54166489999625,438.3492222999921,438.3311478999967,,,,,,,,,,,,,,,,,,,,,,,,,,,,,,,,,,438.3311782999954,438.3492222999921,438.3492222999921,439.01913030000287,r,1,0.6608612000127323,None,,,,sub-481121,001,2024-03-12_13h40.03.342,stroop_test,2023.2.3,None,2024-03-12 13h40.28.162819 +0100,
,,,,,,,,rot,blue,b,0,,,,,,,,,8,6,102,2,439.03724859999784,,,,,,,,,,,,,,,,,439.02058840000245,439.1228401999979,439.93998779999674,439.91692760000296,,,,,,,,,,,,,,,,,,,,,,,,,,,,,,,,,,439.91695769999933,439.93998779999674,439.93998779999674,441.14687169999524,b,1,1.1800491000030888,None,,,,sub-481121,001,2024-03-12_13h40.03.342,stroop_test,2023.2.3,None,2024-03-12 13h40.28.162819 +0100,
,,,,,,,,rot,yellow,g,0,,,,,,,,,8,7,103,3,441.1631827999954,,,,,,,,,,,,,,,,,441.1484125999996,441.95895420000306,442.7821472999931,442.7593532000028,,,,,,,,,,,,,,,,,,,,,,,,,,,,,,,,,,442.7594911999913,442.7821472999931,442.7821472999931,443.3886541999964,g,1,0.5978583999967668,None,,,,sub-481121,001,2024-03-12_13h40.03.342,stroop_test,2023.2.3,None,2024-03-12 13h40.28.162819 +0100,
,,,,,,,,rot,red,r,1,,,,,,,,,8,8,104,0,443.4069804000028,,,,,,,,,,,,,,,,,443.39015550000477,443.49538649999886,444.3092170000018,444.29112979999627,,,,,,,,,,,,,,,,,,,,,,,,,,,,,,,,,,444.2911604999972,444.3092170000018,444.3092170000018,445.01611300000513,r,1,0.6894850999960909,None,,,,sub-481121,001,2024-03-12_13h40.03.342,stroop_test,2023.2.3,None,2024-03-12 13h40.28.162819 +0100,
,,,,,,,,rot,red,r,1,,,,,,,,,8,9,105,1,445.033374599996,,,,,,,,,,,,,,,,,445.0175629000005,446.22255239999504,447.0400990999915,447.02123250000295,,,,,,,,,,,,,,,,,,,,,,,,,,,,,,,,,,447.0212615999917,447.0400990999915,447.0400990999915,448.85659609999857,r,1,1.8003871999972034,None,,,,sub-481121,001,2024-03-12_13h40.03.342,stroop_test,2023.2.3,None,2024-03-12 13h40.28.162819 +0100,
,,,,,,,,gelb,yellow,g,1,,,,,,,,,8,10,106,10,448.8748992000037,,,,,,,,,,,,,,,,,448.8580454000039,449.668018700002,450.4881146999978,450.4649073000037,,,,,,,,,,,,,,,,,,,,,,,,,,,,,,,,,,450.46493990000454,450.4881146999978,450.4881146999978,451.0609240000049,g,1,0.5633678000012878,None,,,,sub-481121,001,2024-03-12_13h40.03.342,stroop_test,2023.2.3,None,2024-03-12 13h40.28.162819 +0100,
,,,,,,,,gelb,red,r,0,,,,,,,,,8,11,107,8,451.0777195999981,,,,,,,,,,,,,,,,,451.0626198999962,451.4128556999931,452.2185271999915,452.2000272000005,,,,,,,,,,,,,,,,,,,,,,,,,,,,,,,,,,452.20005949999904,452.2185271999915,452.2185271999915,453.0305184000026,r,1,0.8049616999924183,None,,,,sub-481121,001,2024-03-12_13h40.03.342,stroop_test,2023.2.3,None,2024-03-12 13h40.28.162819 +0100,
,,,,,,,,rot,yellow,g,0,,,,,,,,,9,0,108,3,453.04787249999936,,,,,,,,,,,,,,,,,453.0322133000009,453.1394127999956,453.94830139999976,453.9262810999935,,,,,,,,,,,,,,,,,,,,,,,,,,,,,,,,,,453.92632099999173,453.94830139999976,453.94830139999976,454.91786980000325,g,1,0.959047999989707,None,,,,sub-481121,001,2024-03-12_13h40.03.342,stroop_test,2023.2.3,None,2024-03-12 13h40.28.162819 +0100,
,,,,,,,,blau,yellow,g,0,,,,,,,,,9,1,109,7,454.9359909999912,,,,,,,,,,,,,,,,,454.9194276000053,455.28188149999187,456.10156870000355,456.0775171999994,,,,,,,,,,,,,,,,,,,,,,,,,,,,,,,,,,456.0775493999972,456.10156870000355,456.10156870000355,456.60082469999907,g,1,0.49778609999339096,None,,,,sub-481121,001,2024-03-12_13h40.03.342,stroop_test,2023.2.3,None,2024-03-12 13h40.28.162819 +0100,
,,,,,,,,gelb,yellow,g,1,,,,,,,,,9,2,110,10,456.61870069999713,,,,,,,,,,,,,,,,,456.6022886999999,456.70639569999184,457.51956410000275,457.4966890999931,,,,,,,,,,,,,,,,,,,,,,,,,,,,,,,,,,457.49672270000156,457.51956410000275,457.51956410000275,458.04784099999233,g,1,0.5118781999917701,None,,,,sub-481121,001,2024-03-12_13h40.03.342,stroop_test,2023.2.3,None,2024-03-12 13h40.28.162819 +0100,
,,,,,,,,blau,blue,b,1,,,,,,,,,9,3,111,6,458.0651574999938,,,,,,,,,,,,,,,,,458.04932259999623,459.2600228999945,460.08275230000436,460.06044349999866,,,,,,,,,,,,,,,,,,,,,,,,,,,,,,,,,,460.06047379999654,460.08275230000436,460.08275230000436,460.58358579999185,b,1,0.4993432000046596,None,,,,sub-481121,001,2024-03-12_13h40.03.342,stroop_test,2023.2.3,None,2024-03-12 13h40.28.162819 +0100,
,,,,,,,,gelb,red,r,0,,,,,,,,,9,4,112,8,460.6020095999993,,,,,,,,,,,,,,,,,460.585056099997,461.8008439999976,462.61589889999595,462.589169999992,,,,,,,,,,,,,,,,,,,,,,,,,,,,,,,,,,462.5892027999944,462.61589889999595,462.61589889999595,463.33669640000153,g,0,0.7144335000048159,None,,,,sub-481121,001,2024-03-12_13h40.03.342,stroop_test,2023.2.3,None,2024-03-12 13h40.28.162819 +0100,
,,,,,,,,rot,blue,b,0,,,,,,,,,9,5,113,2,463.35521579999477,,,,,,,,,,,,,,,,,463.3382200999913,464.139522700003,464.9568048999936,464.93089989999135,,,,,,,,,,,,,,,,,,,,,,,,,,,,,,,,,,464.9309310999961,464.9568048999936,464.9568048999936,465.7985345000052,b,1,0.8272741999971913,None,,,,sub-481121,001,2024-03-12_13h40.03.342,stroop_test,2023.2.3,None,2024-03-12 13h40.28.162819 +0100,
,,,,,,,,gelb,blue,b,0,,,,,,,,,9,6,114,9,465.81572090000554,,,,,,,,,,,,,,,,,465.8004023999965,466.6059294000006,467.4164100999915,467.3943281999964,,,,,,,,,,,,,,,,,,,,,,,,,,,,,,,,,,467.3943594000011,467.4164100999915,467.4164100999915,467.96253750000324,b,1,0.5326706000050763,None,,,,sub-481121,001,2024-03-12_13h40.03.342,stroop_test,2023.2.3,None,2024-03-12 13h40.28.162819 +0100,
,,,,,,,,rot,red,r,1,,,,,,,,,9,7,115,0,467.980329500002,,,,,,,,,,,,,,,,,467.9641216000018,469.1728046999924,469.9862928999937,469.96419030000106,,,,,,,,,,,,,,,,,,,,,,,,,,,,,,,,,,469.964221599992,469.9862928999937,469.9862928999937,470.48830420000013,r,1,0.49249210000562016,None,,,,sub-481121,001,2024-03-12_13h40.03.342,stroop_test,2023.2.3,None,2024-03-12 13h40.28.162819 +0100,
,,,,,,,,gelb,yellow,g,1,,,,,,,,,9,8,116,11,470.5065314999956,,,,,,,,,,,,,,,,,470.48978889999853,470.8525662000029,471.6670379999996,471.6445188999933,,,,,,,,,,,,,,,,,,,,,,,,,,,,,,,,,,471.6445667999942,471.6670379999996,471.6670379999996,472.334354599996,g,1,0.6458304999978282,None,,,,sub-481121,001,2024-03-12_13h40.03.342,stroop_test,2023.2.3,None,2024-03-12 13h40.28.162819 +0100,
,,,,,,,,blau,blue,b,1,,,,,,,,,9,9,117,5,472.35178359999554,,,,,,,,,,,,,,,,,472.335825400005,473.5396063999942,474.3514209999994,474.3288687000022,,,,,,,,,,,,,,,,,,,,,,,,,,,,,,,,,,474.32890269999916,474.3514209999994,474.3514209999994,474.8843057999911,b,1,0.5304480999911902,None,,,,sub-481121,001,2024-03-12_13h40.03.342,stroop_test,2023.2.3,None,2024-03-12 13h40.28.162819 +0100,
,,,,,,,,rot,red,r,1,,,,,,,,,9,10,118,1,474.90479040000355,,,,,,,,,,,,,,,,,474.8857912999956,475.6909658999939,476.51325910000014,476.48849370000244,,,,,,,,,,,,,,,,,,,,,,,,,,,,,,,,,,476.4885246000049,476.51325910000014,476.51325910000014,477.28514089999953,r,1,0.7580827000056161,None,,,,sub-481121,001,2024-03-12_13h40.03.342,stroop_test,2023.2.3,None,2024-03-12 13h40.28.162819 +0100,
,,,,,,,,blau,red,r,0,,,,,,,,,9,11,119,4,477.3030865000037,,,,,,,,,,,,,,,,,477.28661799999827,478.08930490000057,478.90189549999195,478.87900960000115,,,,,,,,,,,,,,,,,,,,,,,,,,,,,,,,,,478.8790397999983,478.90189549999195,478.90189549999195,479.60192230000393,r,1,0.6795188000105554,None,,,,sub-481121,001,2024-03-12_13h40.03.342,stroop_test,2023.2.3,None,2024-03-12 13h40.28.162819 +0100,
,,,,,,,,,,,,,,,,,,,,,,,,,,,,,,,,,,,,,,,,,,,,,,,,,,,,,,,,,,,,,,,,,,,,,,,,,,,,,,,,,,,,,,479.60304590000305,479.62222309999925,484.61128630000167,,,,,,,,
