id,trial_all,block,trial_inblock,condition,cue,direction,choice,response,rt,correct
511,0,0,0,neutral,none,right,right,1,0.745553300017491,1
511,1,0,1,neutral,none,left,left,0,0.45515659998636693,1
511,2,0,2,invalid,right,left,left,0,0.6210894000250846,1
511,3,0,3,invalid,left,right,right,1,0.8298208999913186,1
511,4,0,4,valid,right,right,right,1,0.906076600018423,1
511,5,0,5,valid,right,right,left,0,0.7721493999706581,0
511,6,0,6,valid,right,right,left,0,0.6217207000008784,0
511,7,0,7,valid,right,right,right,1,0.7914183999528177,1
511,8,0,8,neutral,none,left,left,0,0.8102075000060722,1
511,9,0,9,neutral,none,left,right,1,1.0511011999915354,0
511,10,0,10,neutral,none,right,right,1,0.6261315000010654,1
511,11,0,11,invalid,left,right,right,1,0.8295924999983981,1
511,12,0,12,neutral,none,left,right,1,1.088250300032087,0
511,13,0,13,valid,right,right,right,1,0.8396725000347942,1
511,14,0,14,valid,left,left,right,1,0.7430042999912985,0
511,15,0,15,neutral,none,right,right,1,0.635109199967701,1
511,16,0,16,neutral,none,right,left,0,NA,0
511,17,0,17,valid,right,right,right,1,0.4362667000386864,1
511,18,0,18,invalid,right,left,left,0,0.5825278999982402,1
511,19,0,19,neutral,none,left,left,0,0.7165462999837473,1
511,20,0,20,valid,right,right,right,1,0.6912085000076331,1
511,21,0,21,neutral,none,right,right,1,0.6070992000168189,1
511,22,0,22,valid,right,right,right,1,0.5157070999848656,1
511,23,0,23,valid,left,left,left,0,0.38341239996952936,1
511,24,0,24,invalid,right,left,left,0,0.3888535000151023,1
511,25,0,25,neutral,none,right,right,1,0.5183024000143632,1
511,26,0,26,neutral,none,left,left,0,0.7061345999827608,1
511,27,0,27,valid,left,left,left,0,0.405241499945987,1
511,28,0,28,valid,right,right,right,1,0.36530750000383705,1
511,29,0,29,invalid,left,right,right,1,0.46610349998809403,1
511,30,0,30,invalid,left,right,right,1,0.550852499960456,1
511,31,0,31,neutral,none,right,left,0,0.4597780000185594,0
511,32,0,32,valid,right,right,right,1,0.6237425000290386,1
511,33,0,33,neutral,none,right,right,1,0.4903207999886945,1
511,34,0,34,neutral,none,left,left,0,0.4316828000009991,1
511,35,0,35,valid,left,left,left,0,0.3395122000365518,1
511,36,0,36,valid,left,left,left,0,0.3398903000052087,1
511,37,0,37,valid,right,right,right,1,0.4151410000049509,1
511,38,0,38,neutral,none,left,left,0,0.41471080004703254,1
511,39,0,39,neutral,none,right,right,1,0.4472014000057243,1
511,40,0,40,neutral,none,right,right,1,0.3927000999683514,1
511,41,0,41,neutral,none,right,left,0,0.35187489999225363,0
511,42,0,42,valid,left,left,left,0,0.5562047999701463,1
511,43,0,43,valid,left,left,left,0,0.3649431999656372,1
511,44,0,44,valid,right,right,right,1,0.32898930000374094,1
511,45,0,45,valid,left,left,left,0,0.3944940000073984,1
511,46,0,46,valid,right,right,right,1,0.3693185999873094,1
511,47,0,47,neutral,none,right,left,0,0.4604365000268445,0
511,48,0,48,neutral,none,right,right,1,0.6494496999657713,1
511,49,0,49,valid,right,right,left,0,0.33386529999552295,0
511,50,0,50,neutral,none,left,right,1,0.3847588000353426,0
511,51,0,51,neutral,none,left,left,0,0.4681424000300467,1
511,52,0,52,neutral,none,left,left,0,0.7395118999993429,1
511,53,0,53,valid,left,left,right,1,0.6449344999855384,0
511,54,0,54,valid,right,right,left,0,0.5346186000388116,0
511,55,0,55,neutral,none,right,right,1,0.35767309996299446,1
511,56,0,56,valid,left,left,left,0,0.4054275000235066,1
511,57,0,57,valid,left,left,left,0,0.42813730001216754,1
511,58,0,58,valid,left,left,left,0,0.3998918999568559,1
511,59,0,59,neutral,none,left,right,1,0.33276760001899675,0
511,60,0,60,neutral,none,left,right,1,0.3343497000169009,0
511,61,0,61,neutral,none,right,right,1,0.7227603999781422,1
511,62,0,62,invalid,right,left,right,1,0.3087816000333987,0
511,63,0,63,valid,left,left,left,0,0.2866317999432795,1
511,64,0,64,valid,left,left,left,0,0.3712047000299208,1
511,65,0,65,neutral,none,left,left,0,0.3561094999895431,1
511,66,0,66,neutral,none,right,right,1,0.30925230000866577,1
511,67,0,67,neutral,none,right,left,0,0.3558411000412889,0
511,68,0,68,valid,right,right,right,1,0.253524900006596,1
511,69,0,69,valid,left,left,left,0,0.29633639997337013,1
511,70,0,70,valid,left,left,left,0,0.2997921000351198,1
511,71,0,71,neutral,none,left,right,1,0.339375099982135,0
511,72,0,72,neutral,none,right,right,1,0.5082648000097834,1
511,73,0,73,neutral,none,right,left,0,0.4049212000099942,0
511,74,0,74,neutral,none,left,right,1,0.3924587999936193,0
511,75,0,75,neutral,none,left,left,0,0.4614681000239216,1
511,76,0,76,neutral,none,left,right,1,0.6840731000411324,0
511,77,0,77,neutral,none,right,right,1,0.5181982000358403,1
511,78,0,78,neutral,none,left,left,0,0.43444300000555813,1
511,79,0,79,neutral,none,left,right,1,0.34866419999161735,0
511,80,1,0,neutral,none,right,right,1,0.5632688000332564,1
511,81,1,1,neutral,none,left,left,0,0.6153132999897934,1
511,82,1,2,valid,right,right,right,1,0.3482804999803193,1
511,83,1,3,valid,right,right,right,1,0.35736419999739155,1
511,84,1,4,valid,left,left,left,0,0.4646233000094071,1
511,85,1,5,invalid,right,left,right,1,0.3562095999950543,0
511,86,1,6,neutral,none,left,left,0,0.45384670002385974,1
511,87,1,7,valid,right,right,right,1,0.4014286000165157,1
511,88,1,8,neutral,none,left,left,0,0.4784665000042878,1
511,89,1,9,neutral,none,right,right,1,0.36389949999284,1
511,90,1,10,valid,left,left,left,0,0.4013461000286042,1
511,91,1,11,valid,left,left,left,0,0.364438499964308,1
511,92,1,12,valid,left,left,left,0,0.2573574000271037,1
511,93,1,13,valid,right,right,right,1,0.3840755000128411,1
511,94,1,14,neutral,none,right,right,1,0.5344870000262745,1
511,95,1,15,neutral,none,left,left,0,0.6675538999843411,1
511,96,1,16,neutral,none,left,right,1,0.4952098000212573,0
511,97,1,17,invalid,right,left,left,0,0.4546154999989085,1
511,98,1,18,valid,right,right,right,1,0.35770319995936006,1
511,99,1,19,neutral,none,left,left,0,0.45572860003449023,1
511,100,1,20,neutral,none,right,right,1,0.5085278999758884,1
511,101,1,21,valid,right,right,right,1,0.3409504999872297,1
511,102,1,22,invalid,left,right,left,0,0.43958679999923334,0
511,103,1,23,valid,right,right,right,1,0.579016599978786,1
511,104,1,24,neutral,none,right,right,1,0.5746667999774218,1
511,105,1,25,neutral,none,right,right,1,0.46078969998052344,1
511,106,1,26,neutral,none,right,right,1,0.48341179999988526,1
511,107,1,27,valid,left,left,left,0,0.30802980001317337,1
511,108,1,28,neutral,none,left,right,1,0.3606529000098817,0
511,109,1,29,neutral,none,right,left,0,0.6177878999733366,0
511,110,1,30,valid,left,left,left,0,0.49900279997382313,1
511,111,1,31,valid,left,left,left,0,0.36227969999890774,1
511,112,1,32,neutral,none,right,right,1,0.3945281999767758,1
511,113,1,33,neutral,none,right,left,0,0.5047422999632545,0
511,114,1,34,neutral,none,right,right,1,0.5712149000028148,1
511,115,1,35,valid,right,right,right,1,0.34717610001098365,1
511,116,1,36,neutral,none,right,right,1,0.3961506999912672,1
511,117,1,37,neutral,none,right,left,0,0.4944118999992497,0
511,118,1,38,neutral,none,left,right,1,0.29850630002329126,0
511,119,1,39,neutral,none,left,left,0,0.559108599962201,1
511,120,1,40,valid,right,right,right,1,0.45442930003628135,1
511,121,1,41,valid,left,left,left,0,0.33687939995434135,1
511,122,1,42,valid,right,right,right,1,0.31058210000628605,1
511,123,1,43,invalid,left,right,left,0,0.367848200025037,0
511,124,1,44,neutral,none,left,right,1,0.36475339997559786,0
511,125,1,45,valid,right,right,right,1,0.3515156999928877,1
511,126,1,46,neutral,none,right,left,0,0.37373059999663383,0
511,127,1,47,neutral,none,left,right,1,0.43069230002583936,0
511,128,1,48,invalid,right,left,left,0,0.5635069999843836,1
511,129,1,49,valid,left,left,left,0,0.5446898999507539,1
511,130,1,50,valid,left,left,right,1,0.5146298999898136,0
511,131,1,51,valid,left,left,left,0,0.417506699974183,1
511,132,1,52,neutral,none,right,left,0,0.31747479998739436,0
511,133,1,53,valid,right,right,right,1,0.3584182999911718,1
511,134,1,54,valid,left,left,left,0,0.24130190000869337,1
511,135,1,55,valid,left,left,left,0,0.32094070001039654,1
511,136,1,56,valid,right,right,right,1,0.3075323000084609,1
511,137,1,57,neutral,none,left,left,0,0.410674899991136,1
511,138,1,58,neutral,none,left,right,1,0.4034404999692924,0
511,139,1,59,valid,right,right,right,1,0.2968546999618411,1
511,140,1,60,neutral,none,left,left,0,0.4007428999757394,1
511,141,1,61,neutral,none,right,right,1,0.4022844000137411,1
511,142,1,62,neutral,none,right,right,1,0.33501759998034686,1
511,143,1,63,valid,right,right,left,0,0.3698123999638483,0
511,144,1,64,valid,left,left,left,0,0.6163077999954112,1
511,145,1,65,neutral,none,left,right,1,0.3493589999852702,0
511,146,1,66,neutral,none,left,left,0,0.4789888000232167,1
511,147,1,67,invalid,left,right,left,0,0.4003585000173189,0
511,148,1,68,valid,right,right,right,1,0.5181180000072345,1
511,149,1,69,valid,left,left,left,0,0.3247931000078097,1
511,150,1,70,neutral,none,right,right,1,0.3653145999996923,1
511,151,1,71,neutral,none,left,left,0,0.5298135000048205,1
511,152,1,72,invalid,right,left,right,1,0.28942729998379946,0
511,153,1,73,neutral,none,right,left,0,0.29846809996524826,0
511,154,1,74,neutral,none,right,right,1,0.34822210000129417,1
511,155,1,75,invalid,left,right,right,1,0.8726621000096202,1
511,156,1,76,valid,left,left,left,0,0.3580682000028901,1
511,157,1,77,neutral,none,left,right,1,0.35187169996788725,0
511,158,1,78,neutral,none,left,right,1,0.3902389000286348,0
511,159,1,79,neutral,none,left,left,0,0.6846124000148848,1
455,0,0,0,valid,right,right,right,1,0.3752161999582313,1
455,1,0,1,valid,right,right,right,1,0.720744599995669,1
455,2,0,2,invalid,left,right,left,0,0.6324726999737322,0
455,3,0,3,neutral,none,left,left,0,0.45947060000617057,1
455,4,0,4,neutral,none,right,left,0,0.73178850003751,0
455,5,0,5,valid,left,left,right,1,0.5042701999773271,0
455,6,0,6,neutral,none,right,left,0,0.4371450999751687,0
455,7,0,7,valid,left,left,left,0,0.836838000046555,1
455,8,0,8,valid,right,right,right,1,0.4069428999791853,1
455,9,0,9,neutral,none,left,left,0,0.840495300013572,1
455,10,0,10,invalid,left,right,right,1,0.6517316999961622,1
455,11,0,11,neutral,none,right,right,1,0.5076996000134386,1
455,12,0,12,neutral,none,left,left,0,0.7214171999949031,1
455,13,0,13,valid,left,left,left,0,1.2284134000074118,1
455,14,0,14,neutral,none,right,right,1,1.0054380999645218,1
455,15,0,15,valid,left,left,right,1,0.6240454000071622,0
455,16,0,16,neutral,none,left,left,0,0.8203062000102364,1
455,17,0,17,neutral,none,left,right,1,0.5678151999600232,0
455,18,0,18,neutral,none,right,right,1,1.0145520999794826,1
455,19,0,19,valid,left,left,left,0,0.41890319995582104,1
455,20,0,20,neutral,none,left,right,1,1.0114921999629587,0
455,21,0,21,invalid,left,right,right,1,0.7104359000222757,1
455,22,0,22,neutral,none,right,left,0,1.0598020000034012,0
455,23,0,23,valid,left,left,right,1,0.6154551000217907,0
455,24,0,24,neutral,none,right,right,1,0.6699283000198193,1
455,25,0,25,neutral,none,left,right,1,0.9766736999736167,0
455,26,0,26,neutral,none,left,left,0,0.4986642000149004,1
455,27,0,27,neutral,none,left,right,1,0.7349988000351004,0
455,28,0,28,valid,right,right,right,1,0.4656525999889709,1
455,29,0,29,neutral,none,left,right,1,0.7495754000265151,0
455,30,0,30,valid,right,right,left,0,0.5511727000121027,0
455,31,0,31,valid,left,left,left,0,0.44979300000704825,1
455,32,0,32,neutral,none,right,right,1,0.6857079000328667,1
455,33,0,33,neutral,none,right,right,1,0.5878566000028513,1
455,34,0,34,valid,left,left,left,0,0.633979799982626,1
455,35,0,35,neutral,none,right,right,1,0.48026499996194616,1
455,36,0,36,neutral,none,left,right,1,0.7021326000103727,0
455,37,0,37,neutral,none,right,left,0,0.7563194999820553,0
455,38,0,38,neutral,none,right,right,1,0.4008699000114575,1
455,39,0,39,neutral,none,right,right,1,0.6696531999623403,1
455,40,0,40,neutral,none,left,left,0,0.6082581999944523,1
455,41,0,41,neutral,none,right,right,1,0.548368500021752,1
455,42,0,42,valid,right,right,right,1,0.3292051999596879,1
455,43,0,43,neutral,none,left,left,0,0.3519439000519924,1
455,44,0,44,valid,right,right,right,1,0.4426753000007011,1
455,45,0,45,neutral,none,left,right,1,0.24842029996216297,0
455,46,0,46,valid,right,right,left,0,0.36507670005084947,0
455,47,0,47,invalid,left,right,right,1,0.5684798000147566,1
455,48,0,48,neutral,none,left,left,0,0.4660617999616079,1
455,49,0,49,valid,left,left,right,1,0.4205743999918923,0
455,50,0,50,valid,right,right,right,1,0.3293618999887258,1
455,51,0,51,neutral,none,left,right,1,0.4175870000035502,0
455,52,0,52,neutral,none,right,left,0,0.4061661000014283,0
455,53,0,53,valid,right,right,right,1,0.27505150000797585,1
455,54,0,54,neutral,none,left,right,1,0.548462999984622,0
455,55,0,55,valid,left,left,left,0,0.4540739000076428,1
455,56,0,56,valid,right,right,right,1,0.2918195999809541,1
455,57,0,57,invalid,right,left,right,1,0.4731816000421531,0
455,58,0,58,valid,left,left,left,0,0.3345720000215806,1
455,59,0,59,valid,right,right,right,1,0.3005616000154987,1
455,60,0,60,valid,right,right,right,1,0.3646986999665387,1
455,61,0,61,valid,right,right,left,0,0.3479613999952562,0
455,62,0,62,neutral,none,right,left,0,0.34361510002054274,0
455,63,0,63,neutral,none,left,right,1,0.3842191000003368,0
455,64,0,64,valid,left,left,left,0,0.4110809999983758,1
455,65,0,65,valid,left,left,right,1,0.4064102999982424,0
455,66,0,66,neutral,none,left,left,0,0.47554400004446507,1
455,67,0,67,neutral,none,right,right,1,0.37789549998706207,1
455,68,0,68,invalid,right,left,right,1,0.3159160999930464,0
455,69,0,69,invalid,right,left,right,1,0.3257982999784872,0
455,70,0,70,valid,right,right,right,1,0.6897151000448503,1
455,71,0,71,neutral,none,right,left,0,0.4070113999769091,0
455,72,0,72,neutral,none,left,right,1,0.311752500012517,0
455,73,0,73,neutral,none,right,left,0,0.42160119995241985,0
455,74,0,74,valid,left,left,left,0,0.4143136999919079,1
455,75,0,75,neutral,none,right,right,1,0.4222410999936983,1
455,76,0,76,valid,left,left,right,1,0.6349310000077821,0
455,77,0,77,invalid,right,left,right,1,0.5420300999539904,0
455,78,0,78,valid,right,right,left,0,0.7792661999701522,0
455,79,0,79,valid,left,left,left,0,0.2867947000195272,1
455,80,1,0,valid,right,right,right,1,0.34266319999005646,1
455,81,1,1,neutral,none,left,right,1,0.4086204000050202,0
455,82,1,2,valid,right,right,right,1,0.26427340001100674,1
455,83,1,3,neutral,none,right,left,0,0.35841779998736456,0
455,84,1,4,valid,right,right,right,1,1.2436071000411175,1
455,85,1,5,neutral,none,left,right,1,0.35534090001601726,0
455,86,1,6,neutral,none,left,left,0,0.24600620003184304,1
455,87,1,7,neutral,none,right,right,1,0.8182784999953583,1
455,88,1,8,neutral,none,left,right,1,0.4058806999819353,0
455,89,1,9,invalid,left,right,left,0,0.2663042999920435,0
455,90,1,10,valid,right,right,right,1,0.28183110000099987,1
455,91,1,11,neutral,none,left,left,0,0.3911711999680847,1
455,92,1,12,neutral,none,left,right,1,0.49269569996977225,0
455,93,1,13,neutral,none,right,left,0,0.5246923000086099,0
455,94,1,14,neutral,none,right,right,1,0.4180192000349052,1
455,95,1,15,neutral,none,left,right,1,0.36510490003274754,0
455,96,1,16,valid,right,right,right,1,0.4862757000373677,1
455,97,1,17,invalid,left,right,left,0,0.3492641000193544,0
455,98,1,18,valid,left,left,left,0,0.4219323000288568,1
455,99,1,19,neutral,none,left,right,1,0.36015199997927994,0
455,100,1,20,neutral,none,right,left,0,0.4510236000060104,0
455,101,1,21,valid,right,right,right,1,0.481693500012625,1
455,102,1,22,neutral,none,left,right,1,0.4790656000259333,0
455,103,1,23,neutral,none,right,left,0,0.6789838999975473,0
455,104,1,24,valid,right,right,right,1,0.22809119999874383,1
455,105,1,25,valid,left,left,left,0,0.3062874000170268,1
455,106,1,26,valid,right,right,right,1,0.24597450002329424,1
455,107,1,27,valid,right,right,right,1,0.3373223000089638,1
455,108,1,28,valid,right,right,left,0,0.2643745999666862,0
455,109,1,29,valid,right,right,left,0,0.3841285000089556,0
455,110,1,30,invalid,left,right,right,1,0.3898720999713987,1
455,111,1,31,neutral,none,right,left,0,0.3225357999908738,0
455,112,1,32,valid,left,left,right,1,0.5598094000015408,0
455,113,1,33,valid,right,right,right,1,0.25075129995821044,1
455,114,1,34,neutral,none,right,left,0,0.27113760000793263,0
455,115,1,35,valid,left,left,left,0,0.3879464999772608,1
455,116,1,36,neutral,none,right,right,1,0.4349130999762565,1
455,117,1,37,valid,left,left,left,0,0.5763984000077471,1
455,118,1,38,neutral,none,right,right,1,0.373680200020317,1
455,119,1,39,neutral,none,right,left,0,0.3382911999942735,0
455,120,1,40,valid,left,left,right,1,0.27972970000701025,0
455,121,1,41,neutral,none,left,left,0,0.3034019999904558,1
455,122,1,42,valid,right,right,right,1,0.3285261999699287,1
455,123,1,43,neutral,none,left,left,0,0.35103049996541813,1
455,124,1,44,valid,left,left,left,0,0.26585780002642423,1
455,125,1,45,neutral,none,left,right,1,0.3760985999833792,0
455,126,1,46,neutral,none,left,left,0,0.4142973000416532,1
455,127,1,47,neutral,none,right,right,1,0.29970829997910187,1
455,128,1,48,invalid,left,right,left,0,0.2663697999669239,0
455,129,1,49,neutral,none,left,right,1,0.3662748000351712,0
455,130,1,50,neutral,none,right,left,0,0.2559655999648385,0
455,131,1,51,valid,left,left,left,0,0.23565320001216605,1
455,132,1,52,valid,right,right,right,1,0.4265202999813482,1
455,133,1,53,neutral,none,right,left,0,0.3401939999894239,0
455,134,1,54,valid,left,left,left,0,0.2915948000154458,1
455,135,1,55,valid,left,left,right,1,0.4135598000138998,0
455,136,1,56,valid,left,left,right,1,0.4649740000022575,0
455,137,1,57,neutral,none,right,left,0,0.4982016999856569,0
455,138,1,58,valid,left,left,left,0,0.5263543000328355,1
455,139,1,59,neutral,none,left,right,1,0.3999263999867253,0
455,140,1,60,neutral,none,right,left,0,0.5186920999549329,0
455,141,1,61,neutral,none,left,right,1,0.31658370001241565,0
455,142,1,62,valid,right,right,right,1,0.2439393000095151,1
455,143,1,63,valid,left,left,left,0,0.23516670003300533,1
455,144,1,64,valid,left,left,left,0,NA,1
455,145,1,65,valid,right,right,right,1,0.24840840004617348,1
455,146,1,66,neutral,none,left,left,0,0.3093322000349872,1
455,147,1,67,neutral,none,left,left,0,NA,1
455,148,1,68,neutral,none,left,left,0,0.2584487999556586,1
455,149,1,69,valid,left,left,left,0,0.20317659998545423,1
455,150,1,70,neutral,none,right,right,1,0.2918039000360295,1
455,151,1,71,neutral,none,right,left,0,0.2830521000432782,0
455,152,1,72,invalid,right,left,right,1,0.25218469998799264,0
455,153,1,73,valid,left,left,left,0,0.33622910000849515,1
455,154,1,74,invalid,right,left,right,1,0.5172434999840334,0
455,155,1,75,neutral,none,left,left,0,0.40988910000305623,1
455,156,1,76,invalid,right,left,right,1,0.26387419999809936,0
455,157,1,77,neutral,none,right,left,0,0.343546400021296,0
455,158,1,78,neutral,none,right,right,1,0.3738215999910608,1
455,159,1,79,invalid,right,left,right,1,0.32680669997353107,0
239,0,0,0,valid,right,right,right,1,0.8771371719922172,1
239,1,0,1,valid,left,left,left,0,0.7267097630101489,1
239,2,0,2,neutral,none,left,left,0,0.8523270389996469,1
239,3,0,3,neutral,none,right,right,1,0.7587465480028186,1
239,4,0,4,neutral,none,right,left,0,0.8286280800093664,0
239,5,0,5,valid,left,left,right,1,1.002041031999397,0
239,6,0,6,valid,right,right,left,0,0.6966192969994154,0
239,7,0,7,neutral,none,left,left,0,0.8158331840095343,1
239,8,0,8,neutral,none,right,right,1,0.8619606819993351,1
239,9,0,9,valid,right,right,right,1,1.0579640500072856,1
239,10,0,10,valid,left,left,left,0,1.0463560270000016,1
239,11,0,11,neutral,none,right,left,0,NA,0
239,12,0,12,valid,left,left,left,0,1.190581757997279,1
239,13,0,13,neutral,none,left,right,1,0.9400590900040696,0
239,14,0,14,neutral,none,left,left,0,0.5688497430091957,1
239,15,0,15,neutral,none,left,right,1,0.6358219859976089,0
239,16,0,16,valid,left,left,left,0,0.6757937149959616,1
239,17,0,17,neutral,none,right,left,0,0.6346969259902835,0
239,18,0,18,valid,left,left,right,1,0.8989088950038422,0
239,19,0,19,invalid,left,right,right,1,0.8018190130096627,1
239,20,0,20,valid,left,left,left,0,0.7035857720038621,1
239,21,0,21,neutral,none,right,right,1,0.7359493099938845,1
239,22,0,22,neutral,none,left,left,0,0.8252657580014784,1
239,23,0,23,neutral,none,right,right,1,0.8187678880058229,1
239,24,0,24,neutral,none,left,left,0,0.8147696450032527,1
239,25,0,25,neutral,none,left,left,0,0.8267055799951777,1
239,26,0,26,neutral,none,right,right,1,0.8114566810108954,1
239,27,0,27,neutral,none,right,right,1,0.8909338060038863,1
239,28,0,28,valid,left,left,left,0,0.9898763969977152,1
239,29,0,29,neutral,none,left,right,1,0.8747648429998662,0
239,30,0,30,valid,right,right,right,1,0.7985210499900859,1
239,31,0,31,neutral,none,right,right,1,0.7975700649985811,1
239,32,0,32,invalid,right,left,left,0,0.9124848420033232,1
239,33,0,33,neutral,none,left,left,0,0.934501862997422,1
239,34,0,34,valid,right,right,left,0,1.1877785370015772,0
239,35,0,35,valid,left,left,left,0,0.9139971939875976,1
239,36,0,36,neutral,none,right,right,1,1.012370626005577,1
239,37,0,37,valid,right,right,right,1,1.1068333009898197,1
239,38,0,38,valid,left,left,left,0,0.9449496589950286,1
239,39,0,39,neutral,none,right,right,1,0.8558243089937605,1
239,40,0,40,neutral,none,right,right,1,0.9840639820031356,1
239,41,0,41,invalid,right,left,left,0,1.1539845710067311,1
239,42,0,42,neutral,none,left,left,0,0.8375009089941159,1
239,43,0,43,valid,right,right,left,0,1.1260252540087097,0
239,44,0,44,valid,left,left,left,0,1.071291528001893,1
239,45,0,45,valid,right,right,left,0,0.9681205110100564,0
239,46,0,46,valid,left,left,left,0,0.8272778690006817,1
239,47,0,47,invalid,left,right,right,1,1.028367494000122,1
239,48,0,48,neutral,none,left,left,0,0.8077309289947152,1
239,49,0,49,neutral,none,left,left,0,1.1102117289992748,1
239,50,0,50,valid,right,right,left,0,1.384290328991483,0
239,51,0,51,invalid,left,right,right,1,1.019113534988719,1
239,52,0,52,neutral,none,left,left,0,0.9882884019898484,1
239,53,0,53,neutral,none,left,left,0,1.16241238200746,1
239,54,0,54,invalid,right,left,left,0,0.7608210399921518,1
239,55,0,55,valid,right,right,right,1,0.7111084879870759,1
239,56,0,56,neutral,none,right,left,0,0.9975241100037238,0
239,57,0,57,neutral,none,left,left,0,1.0827673169987977,1
239,58,0,58,invalid,right,left,left,0,0.9143059060006636,1
239,59,0,59,neutral,none,right,left,0,0.9642994059977354,0
239,60,0,60,valid,right,right,left,0,NA,0
239,61,0,61,valid,left,left,left,0,0.7226080910040764,1
239,62,0,62,valid,right,right,left,0,0.7560481609980343,0
239,63,0,63,valid,left,left,left,0,0.7558994950086344,1
239,64,0,64,valid,left,left,left,0,0.8356606129964348,1
239,65,0,65,neutral,none,right,left,0,0.7328429909975966,0
239,66,0,66,neutral,none,right,left,0,1.1344628910010215,0
239,67,0,67,neutral,none,right,right,1,0.8751620059920242,1
239,68,0,68,valid,right,right,left,0,NA,0
239,69,0,69,valid,right,right,right,1,0.6658796319970861,1
239,70,0,70,neutral,none,right,left,0,0.7840382459980901,0
239,71,0,71,invalid,left,right,right,1,0.7152271389932139,1
239,72,0,72,valid,right,right,left,0,0.8337252780038398,0
239,73,0,73,neutral,none,left,right,1,0.6548279800044838,0
239,74,0,74,neutral,none,left,left,0,0.6271367250010371,1
239,75,0,75,valid,right,right,left,0,0.7283897070010426,0
239,76,0,76,valid,left,left,left,0,0.9923433910007587,1
239,77,0,77,neutral,none,left,left,0,0.8769101450016024,1
239,78,0,78,neutral,none,left,left,0,0.8472659039980499,1
239,79,0,79,neutral,none,right,right,1,1.0378439789928962,1
239,80,1,0,valid,left,left,left,0,0.8026085559977219,1
239,81,1,1,neutral,none,left,left,0,0.9890405600017402,1
239,82,1,2,valid,left,left,left,0,0.6876022119977279,1
239,83,1,3,valid,left,left,left,0,0.8544338800129481,1
239,84,1,4,neutral,none,right,left,0,0.802925772004528,0
239,85,1,5,neutral,none,left,left,0,0.782988948005368,1
239,86,1,6,neutral,none,right,left,0,0.7304753939970396,0
239,87,1,7,neutral,none,right,right,1,1.028102073003538,1
239,88,1,8,neutral,none,left,left,0,1.1535975900042104,1
239,89,1,9,neutral,none,left,left,0,0.8701274330087472,1
239,90,1,10,valid,right,right,right,1,1.2077417939872248,1
239,91,1,11,neutral,none,right,left,0,0.9342368240031648,0
239,92,1,12,neutral,none,left,left,0,0.9506368520087564,1
239,93,1,13,neutral,none,right,right,1,1.333547605012427,1
239,94,1,14,invalid,right,left,left,0,1.198974017999717,1
239,95,1,15,neutral,none,left,left,0,1.0594701579975665,1
239,96,1,16,neutral,none,left,left,0,0.926036966004176,1
239,97,1,17,valid,left,left,left,0,1.0698637210007291,1
239,98,1,18,neutral,none,right,left,0,0.8981394290021854,0
239,99,1,19,valid,right,right,right,1,1.2605463829968355,1
239,100,1,20,valid,left,left,left,0,0.8800401269982103,1
239,101,1,21,neutral,none,right,right,1,1.2895222250081133,1
239,102,1,22,invalid,left,right,right,1,0.6567393419973087,1
239,103,1,23,valid,left,left,left,0,0.9688141049991827,1
239,104,1,24,valid,right,right,left,0,0.8305040990089765,0
239,105,1,25,valid,left,left,left,0,0.888074066999252,1
239,106,1,26,neutral,none,left,right,1,1.116282228002092,0
239,107,1,27,neutral,none,right,right,1,1.0581346380058676,1
239,108,1,28,valid,right,right,left,0,1.3541061930009164,0
239,109,1,29,neutral,none,right,right,1,1.2176239639957205,1
239,110,1,30,valid,left,left,right,1,0.9704643439908978,0
239,111,1,31,valid,right,right,left,0,0.8380606809951132,0
239,112,1,32,neutral,none,left,left,0,0.846653653003159,1
239,113,1,33,valid,right,right,right,1,0.8079412130027777,1
239,114,1,34,valid,left,left,left,0,0.7583289890026208,1
239,115,1,35,valid,right,right,right,1,0.9099878379929578,1
239,116,1,36,neutral,none,left,left,0,0.6285719690058613,1
239,117,1,37,valid,right,right,right,1,0.854002791995299,1
239,118,1,38,valid,left,left,left,0,0.8705484629899729,1
239,119,1,39,neutral,none,left,right,1,0.754205004996038,0
239,120,1,40,neutral,none,left,left,0,0.7056937979941722,1
239,121,1,41,valid,right,right,right,1,1.1418576979922364,1
239,122,1,42,neutral,none,right,right,1,0.9187356869952056,1
239,123,1,43,neutral,none,right,right,1,0.924451693004812,1
239,124,1,44,valid,left,left,left,0,0.8339781919930829,1
239,125,1,45,valid,right,right,right,1,1.39113516001089,1
239,126,1,46,valid,right,right,left,0,0.8779110699979356,0
239,127,1,47,valid,right,right,right,1,0.8650438240001677,1
239,128,1,48,invalid,left,right,right,1,1.3832559870061232,1
239,129,1,49,valid,left,left,left,0,0.9172654599969974,1
239,130,1,50,valid,right,right,right,1,0.791015694005182,1
239,131,1,51,invalid,right,left,left,0,0.8380299800046487,1
239,132,1,52,invalid,right,left,left,0,1.0189190449891612,1
239,133,1,53,neutral,none,left,left,0,0.678782044997206,1
239,134,1,54,neutral,none,left,left,0,0.8386282699939329,1
239,135,1,55,valid,left,left,left,0,0.7375543840025784,1
239,136,1,56,neutral,none,right,left,0,1.0665747949969957,0
239,137,1,57,valid,left,left,left,0,0.8793461930035846,1
239,138,1,58,valid,left,left,left,0,0.8384819219936617,1
239,139,1,59,valid,right,right,left,0,0.7778179640008602,0
239,140,1,60,valid,right,right,left,0,0.9351665860012872,0
239,141,1,61,neutral,none,right,right,1,0.8382223549997434,1
239,142,1,62,neutral,none,left,left,0,0.6125819529988803,1
239,143,1,63,neutral,none,left,left,0,0.6468141399964225,1
239,144,1,64,neutral,none,left,left,0,0.7361136240069754,1
239,145,1,65,invalid,right,left,left,0,0.7609374220046448,1
239,146,1,66,valid,right,right,left,0,0.8794856479944428,0
239,147,1,67,neutral,none,right,right,1,0.7272429349977756,1
239,148,1,68,invalid,left,right,left,0,0.6925109139992855,0
239,149,1,69,neutral,none,right,left,0,0.905577869998524,0
239,150,1,70,neutral,none,right,left,0,0.9677973710058724,0
239,151,1,71,neutral,none,right,left,0,1.1155337819945998,0
239,152,1,72,valid,left,left,left,0,0.747825771002681,1
239,153,1,73,neutral,none,left,left,0,0.9165456920018188,1
239,154,1,74,invalid,left,right,left,0,0.7268645910080522,0
239,155,1,75,neutral,none,right,left,0,0.7798871580016566,0
239,156,1,76,neutral,none,right,right,1,0.7074475639965385,1
239,157,1,77,neutral,none,right,right,1,0.9140981199889212,1
239,158,1,78,neutral,none,left,left,0,0.6700002739962656,1
239,159,1,79,neutral,none,left,left,0,0.9691849230002844,1
983,0,0,0,neutral,none,right,right,1,0.7310174870071933,1
983,1,0,1,neutral,none,left,left,0,0.6758581500034779,1
983,2,0,2,neutral,none,right,right,1,0.587946521001868,1
983,3,0,3,invalid,right,left,right,1,0.6793555990152527,0
983,4,0,4,neutral,none,left,left,0,0.786764974007383,1
983,5,0,5,neutral,none,left,left,0,0.5062854540010449,1
983,6,0,6,valid,left,left,left,0,0.6112762419797946,1
983,7,0,7,invalid,left,right,left,0,0.7996633980073966,0
983,8,0,8,neutral,none,left,left,0,0.5273748289910145,1
983,9,0,9,neutral,none,left,left,0,0.4917383079882711,1
983,10,0,10,valid,right,right,right,1,0.4450662749877665,1
983,11,0,11,neutral,none,right,left,0,0.5896151820197701,0
983,12,0,12,neutral,none,right,left,0,0.5214254799939226,0
983,13,0,13,neutral,none,right,right,1,0.5078430059948005,1
983,14,0,14,valid,right,right,right,1,0.4956758539774455,1
983,15,0,15,neutral,none,left,left,0,0.4633558450150303,1
983,16,0,16,valid,left,left,left,0,0.33462423499440774,1
983,17,0,17,valid,left,left,right,1,0.47468015100457706,0
983,18,0,18,valid,right,right,left,0,0.6278346850012895,0
983,19,0,19,valid,right,right,right,1,0.492975347005995,1
983,20,0,20,neutral,none,left,right,1,0.4815454040071927,0
983,21,0,21,neutral,none,right,left,0,0.4118724360014312,0
983,22,0,22,valid,right,right,right,1,0.4101265919744037,1
983,23,0,23,valid,right,right,right,1,0.5728433619951829,1
983,24,0,24,valid,right,right,left,0,0.4041951159888413,0
983,25,0,25,neutral,none,left,right,1,0.30211377001251094,0
983,26,0,26,valid,right,right,right,1,0.4677076080115512,1
983,27,0,27,valid,left,left,left,0,0.4879226429911796,1
983,28,0,28,neutral,none,right,left,0,0.38993363300687633,0
983,29,0,29,neutral,none,right,right,1,0.4502915040066,1
983,30,0,30,invalid,left,right,right,1,0.5844448779826052,1
983,31,0,31,neutral,none,left,left,0,0.5164172369986773,1
983,32,0,32,valid,left,left,left,0,0.6851826579950284,1
983,33,0,33,neutral,none,right,left,0,0.6837993439985439,0
983,34,0,34,neutral,none,left,left,0,0.5051830070151482,1
983,35,0,35,valid,left,left,right,1,0.479377009003656,0
983,36,0,36,neutral,none,right,right,1,0.6643314279790502,1
983,37,0,37,neutral,none,left,left,0,0.7439219540101476,1
983,38,0,38,valid,left,left,right,1,0.6169852089951746,0
983,39,0,39,neutral,none,right,right,1,0.534664481994696,1
983,40,0,40,valid,left,left,left,0,0.456981586990878,1
983,41,0,41,valid,left,left,left,0,0.4159468910074793,1
983,42,0,42,valid,right,right,right,1,0.5675728380156215,1
983,43,0,43,neutral,none,right,left,0,0.6440833180095069,0
983,44,0,44,valid,right,right,right,1,0.3479809159762226,1
983,45,0,45,valid,left,left,left,0,0.3563929649826605,1
983,46,0,46,valid,left,left,left,0,0.3764925799914636,1
983,47,0,47,neutral,none,right,left,0,0.451602440996794,0
983,48,0,48,neutral,none,left,right,1,0.7981627919944003,0
983,49,0,49,neutral,none,left,left,0,0.3889159339887556,1
983,50,0,50,neutral,none,left,left,0,0.4934031740122009,1
983,51,0,51,neutral,none,right,right,1,0.5178690899920184,1
983,52,0,52,neutral,none,left,left,0,0.35295838699676096,1
983,53,0,53,valid,left,left,right,1,0.470198923983844,0
983,54,0,54,valid,right,right,left,0,0.4848763140034862,0
983,55,0,55,valid,right,right,right,1,0.642452210013289,1
983,56,0,56,invalid,left,right,right,1,0.4578660450060852,1
983,57,0,57,neutral,none,right,right,1,0.5696381200104952,1
983,58,0,58,valid,right,right,right,1,0.5444745770073496,1
983,59,0,59,valid,right,right,right,1,0.8348663509823382,1
983,60,0,60,invalid,left,right,right,1,0.5610644269909244,1
983,61,0,61,neutral,none,right,right,1,0.35686957501457073,1
983,62,0,62,valid,left,left,right,1,0.30920474900631234,0
983,63,0,63,valid,right,right,right,1,0.4108194219879806,1
983,64,0,64,invalid,right,left,right,1,0.28273921698564664,0
983,65,0,65,invalid,right,left,right,1,0.6080613329831976,0
983,66,0,66,neutral,none,right,right,1,0.6374600209819619,1
983,67,0,67,neutral,none,left,right,1,0.47601579199545085,0
983,68,0,68,invalid,right,left,left,0,0.4578839540190529,1
983,69,0,69,neutral,none,right,right,1,0.46074984199367464,1
983,70,0,70,neutral,none,left,left,0,0.6020261310040951,1
983,71,0,71,neutral,none,left,right,1,0.537749390990939,0
983,72,0,72,neutral,none,left,left,0,0.36674848900293,1
983,73,0,73,valid,right,right,right,1,0.4618802540062461,1
983,74,0,74,neutral,none,right,right,1,0.49697333000949584,1
983,75,0,75,neutral,none,left,right,1,0.4516692490142305,0
983,76,0,76,valid,left,left,left,0,0.29333971498999745,1
983,77,0,77,valid,left,left,right,1,0.46239494302426465,0
983,78,0,78,neutral,none,right,right,1,0.53472274998785,1
983,79,0,79,valid,left,left,right,1,0.4343328030081466,0
983,80,1,0,neutral,none,left,right,1,0.5883995309995953,0
983,81,1,1,valid,right,right,right,1,0.5959825220052153,1
983,82,1,2,neutral,none,right,right,1,0.4860314989928156,1
983,83,1,3,neutral,none,left,left,0,0.7089832119818311,1
983,84,1,4,neutral,none,left,right,1,0.5801946019928437,0
983,85,1,5,valid,right,right,right,1,0.7646567900083028,1
983,86,1,6,neutral,none,right,right,1,0.793240289989626,1
983,87,1,7,neutral,none,right,right,1,0.6356364830280654,1
983,88,1,8,valid,left,left,right,1,0.7619732430030126,0
983,89,1,9,valid,right,right,right,1,0.9235550510056784,1
983,90,1,10,invalid,right,left,right,1,0.6422535309975501,0
983,91,1,11,neutral,none,right,right,1,0.5999344179872423,1
983,92,1,12,neutral,none,left,right,1,0.5684678840043489,0
983,93,1,13,neutral,none,left,right,1,0.8579948260157835,0
983,94,1,14,neutral,none,right,right,1,0.575497666024603,1
983,95,1,15,neutral,none,right,right,1,0.48959937400650233,1
983,96,1,16,valid,right,right,right,1,0.7512415069795679,1
983,97,1,17,valid,left,left,right,1,0.5128560590092093,0
983,98,1,18,valid,left,left,left,0,0.5367926239850931,1
983,99,1,19,valid,left,left,right,1,0.5650837270077318,0
983,100,1,20,valid,right,right,right,1,0.562670512998011,1
983,101,1,21,neutral,none,right,right,1,0.619883370003663,1
983,102,1,22,neutral,none,left,right,1,0.5961453749914654,0
983,103,1,23,neutral,none,right,right,1,0.6414964850118849,1
983,104,1,24,valid,left,left,right,1,0.663089364010375,0
983,105,1,25,neutral,none,left,left,0,0.6257965860131662,1
983,106,1,26,neutral,none,left,right,1,0.7238901060190983,0
983,107,1,27,neutral,none,right,right,1,0.5323378040047828,1
983,108,1,28,neutral,none,right,right,1,0.4642237539810594,1
983,109,1,29,valid,left,left,right,1,0.7420854470110498,0
983,110,1,30,neutral,none,left,left,0,0.8902324610098731,1
983,111,1,31,neutral,none,left,left,0,0.6472479799995199,1
983,112,1,32,neutral,none,right,right,1,0.638779266999336,1
983,113,1,33,neutral,none,left,left,0,0.5844744980277028,1
983,114,1,34,valid,right,right,left,0,0.6275269819889218,0
983,115,1,35,neutral,none,right,left,0,0.7145972309808712,0
983,116,1,36,valid,left,left,left,0,0.8806175960053224,1
983,117,1,37,neutral,none,left,left,0,0.629663609986892,1
983,118,1,38,neutral,none,right,right,1,0.45582778597599827,1
983,119,1,39,invalid,right,left,left,0,0.5819422680069692,1
983,120,1,40,neutral,none,left,left,0,0.603271036001388,1
983,121,1,41,valid,right,right,left,0,0.5272104890027549,0
983,122,1,42,neutral,none,left,left,0,0.599435522017302,1
983,123,1,43,invalid,left,right,right,1,0.6854258019884583,1
983,124,1,44,valid,right,right,right,1,0.8060377899964806,1
983,125,1,45,neutral,none,left,left,0,0.786153238004772,1
983,126,1,46,valid,right,right,right,1,0.877083513973048,1
983,127,1,47,invalid,left,right,right,1,0.7769331310119014,1
983,128,1,48,valid,left,left,right,1,1.4591498709924051,0
983,129,1,49,valid,right,right,right,1,0.9984209759859368,1
983,130,1,50,valid,left,left,left,0,0.7909855309990235,1
983,131,1,51,neutral,none,left,left,0,0.8320319269842003,1
983,132,1,52,neutral,none,right,right,1,0.6620533209934365,1
983,133,1,53,valid,left,left,left,0,0.2479453610139899,1
983,134,1,54,valid,right,right,right,1,0.464457563997712,1
983,135,1,55,valid,left,left,right,1,0.6304302549979184,0
983,136,1,56,valid,left,left,right,1,0.6358714269881602,0
983,137,1,57,neutral,none,right,right,1,0.7029354990227148,1
983,138,1,58,valid,right,right,right,1,0.6091403170139529,1
983,139,1,59,neutral,none,right,right,1,0.6580846739816479,1
983,140,1,60,neutral,none,right,right,1,0.7329936440219171,1
983,141,1,61,invalid,left,right,right,1,0.5641821090248413,1
983,142,1,62,neutral,none,right,right,1,0.5303373629867565,1
983,143,1,63,valid,left,left,left,0,0.5906616320135072,1
983,144,1,64,valid,left,left,left,0,0.5557776789937634,1
983,145,1,65,neutral,none,left,left,0,1.1824986150022596,1
983,146,1,66,invalid,right,left,left,0,0.5257003009901382,1
983,147,1,67,neutral,none,left,left,0,0.8849546809797175,1
983,148,1,68,valid,left,left,left,0,0.8888739790127147,1
983,149,1,69,valid,left,left,left,0,0.696689112985041,1
983,150,1,70,invalid,left,right,right,1,0.5782928109983914,1
983,151,1,71,neutral,none,left,left,0,0.46557786597986706,1
983,152,1,72,neutral,none,left,left,0,0.7447302069922443,1
983,153,1,73,neutral,none,right,right,1,0.7534975860035047,1
983,154,1,74,invalid,right,left,left,0,0.5340990489930846,1
983,155,1,75,valid,right,right,left,0,0.5179044480028097,0
983,156,1,76,valid,right,right,right,1,0.6288483190000989,1
983,157,1,77,valid,right,right,right,1,0.7066441100032534,1
983,158,1,78,neutral,none,right,left,0,0.6460524090216495,0
983,159,1,79,valid,right,right,right,1,0.5611806069791783,1
551,0,0,0,valid,right,right,left,0,0.5396376999997301,0
551,1,0,1,neutral,none,left,left,0,1.1094777999969665,1
551,2,0,2,neutral,none,left,left,0,NA,1
551,3,0,3,valid,left,left,left,0,0.5511243999935687,1
551,4,0,4,valid,right,right,right,1,0.3536533000005875,1
551,5,0,5,neutral,none,right,left,0,0.5437147999909939,0
551,6,0,6,invalid,right,left,right,1,0.489016299994546,0
551,7,0,7,valid,right,right,left,0,0.5644524000090314,0
551,8,0,8,invalid,left,right,left,0,0.7733379999990575,0
551,9,0,9,neutral,none,right,left,0,1.2733798999979626,0
551,10,0,10,neutral,none,right,right,1,0.5842013999936171,1
551,11,0,11,neutral,none,right,left,0,0.6901002999948105,0
551,12,0,12,neutral,none,right,right,1,1.0467313999979524,1
551,13,0,13,neutral,none,left,left,0,0.5169630000018515,1
551,14,0,14,valid,right,right,left,0,0.4395033000037074,0
551,15,0,15,neutral,none,right,right,1,0.5152543000003789,1
551,16,0,16,valid,right,right,left,0,0.5110562999907415,0
551,17,0,17,valid,left,left,left,0,0.8480553000117652,1
551,18,0,18,neutral,none,left,left,0,0.5609373999905074,1
551,19,0,19,invalid,left,right,right,1,0.5627993000089191,1
551,20,0,20,valid,right,right,left,0,0.5292686999891885,0
551,21,0,21,valid,right,right,right,1,1.162787399996887,1
551,22,0,22,neutral,none,left,left,0,0.6361251999915112,1
551,23,0,23,invalid,right,left,right,1,0.8409304000088014,0
551,24,0,24,neutral,none,left,left,0,1.0960167000012009,1
551,25,0,25,valid,left,left,right,1,0.5728170999936992,0
551,26,0,26,neutral,none,right,left,0,0.6414283999911277,0
551,27,0,27,neutral,none,right,right,1,0.5436196999944514,1
551,28,0,28,invalid,right,left,left,0,0.6617827000009129,1
551,29,0,29,valid,right,right,right,1,0.5911132999899564,1
551,30,0,30,neutral,none,left,left,0,0.5473913000023458,1
551,31,0,31,neutral,none,right,right,1,0.6924437999987276,1
551,32,0,32,valid,right,right,right,1,0.8826837000087835,1
551,33,0,33,neutral,none,left,left,0,0.6487674999953015,1
551,34,0,34,valid,left,left,right,1,0.598756899998989,0
551,35,0,35,valid,left,left,left,0,0.5539034999965224,1
551,36,0,36,valid,left,left,right,1,0.8154776999872411,0
551,37,0,37,neutral,none,left,left,0,0.6788628999929642,1
551,38,0,38,valid,left,left,right,1,0.5924679000017932,0
551,39,0,39,neutral,none,left,left,0,0.5572916999954032,1
551,40,0,40,neutral,none,right,right,1,0.5776322000019718,1
551,41,0,41,neutral,none,left,right,1,0.5937373000051593,0
551,42,0,42,neutral,none,right,left,0,0.5947155000030762,0
551,43,0,43,invalid,left,right,right,1,0.9946820000041044,1
551,44,0,44,valid,right,right,left,0,0.6687392000021646,0
551,45,0,45,valid,left,left,right,1,0.6060044000041671,0
551,46,0,46,neutral,none,left,left,0,0.6180639999947743,1
551,47,0,47,valid,right,right,right,1,0.5454434999992372,1
551,48,0,48,neutral,none,left,left,0,0.6604225000046426,1
551,49,0,49,valid,left,left,left,0,0.5013414999993984,1
551,50,0,50,valid,left,left,left,0,0.9006614999962039,1
551,51,0,51,valid,left,left,left,0,0.9781089999887628,1
551,52,0,52,valid,right,right,right,1,0.6059898999956204,1
551,53,0,53,valid,left,left,right,1,0.550848999992013,0
551,54,0,54,valid,left,left,left,0,0.7228356999985408,1
551,55,0,55,neutral,none,right,right,1,0.6049809999967692,1
551,56,0,56,neutral,none,left,right,1,1.0959355999948457,0
551,57,0,57,neutral,none,right,left,0,0.674156099994434,0
551,58,0,58,valid,left,left,right,1,0.8624845000013011,0
551,59,0,59,neutral,none,right,left,0,1.222470599997905,0
551,60,0,60,invalid,left,right,left,0,0.4395049000013387,0
551,61,0,61,neutral,none,right,right,1,0.4755472000106238,1
551,62,0,62,neutral,none,left,left,0,0.5735954999981914,1
551,63,0,63,valid,right,right,right,1,0.4127911000105086,1
551,64,0,64,neutral,none,left,left,0,0.5644192000036128,1
551,65,0,65,valid,right,right,right,1,0.575964000003296,1
551,66,0,66,neutral,none,right,left,0,0.5203847999946447,0
551,67,0,67,neutral,none,left,left,0,0.8986446000053547,1
551,68,0,68,neutral,none,right,right,1,0.8537729999952717,1
551,69,0,69,neutral,none,right,left,0,0.7708618000033312,0
551,70,0,70,neutral,none,left,left,0,0.8531235999980709,1
551,71,0,71,valid,left,left,right,1,0.6561355000012554,0
551,72,0,72,neutral,none,right,right,1,0.8214585999958217,1
551,73,0,73,neutral,none,left,left,0,0.5190886000054888,1
551,74,0,74,valid,right,right,right,1,0.7842896999936784,1
551,75,0,75,neutral,none,left,left,0,0.5054585000034422,1
551,76,0,76,valid,right,right,right,1,0.5402439000026789,1
551,77,0,77,neutral,none,right,left,0,0.629058399994392,0
551,78,0,78,valid,left,left,left,0,0.6786347000015667,1
551,79,0,79,invalid,right,left,right,1,0.5958572000090498,0
551,80,1,0,valid,left,left,left,0,1.1895471000025282,1
551,81,1,1,neutral,none,right,right,1,0.41172829999413807,1
551,82,1,2,neutral,none,left,right,1,0.40282960000331514,0
551,83,1,3,valid,right,right,right,1,0.5639334000006784,1
551,84,1,4,invalid,left,right,left,0,0.7533924000017578,0
551,85,1,5,valid,left,left,right,1,0.7906484000122873,0
551,86,1,6,neutral,none,right,right,1,0.5480970000062371,1
551,87,1,7,neutral,none,right,left,0,0.50195230000827,0
551,88,1,8,neutral,none,right,right,1,0.6115955999994185,1
551,89,1,9,neutral,none,left,left,0,0.6225158000015654,1
551,90,1,10,neutral,none,right,right,1,0.70783420000225306,1
551,91,1,11,valid,right,right,right,1,0.8215282000019215,1
551,92,1,12,neutral,none,left,left,0,0.5779891999991378,1
551,93,1,13,neutral,none,left,right,1,0.7260251999978209,0
551,94,1,14,valid,left,left,left,0,0.6146711999899708,1
551,95,1,15,valid,left,left,right,1,0.5476094000041485,0
551,96,1,16,invalid,left,right,right,1,0.7147308999992674,1
551,97,1,17,neutral,none,left,left,0,0.4786355999967782,1
551,98,1,18,neutral,none,left,right,1,0.5199925000051735,0
551,99,1,19,neutral,none,right,right,1,0.5426352000067709,1
551,100,1,20,neutral,none,right,right,1,0.7606590999930631,1
551,101,1,21,valid,left,left,right,1,0.6643771000090055,0
551,102,1,22,neutral,none,left,left,0,0.8663843999966048,1
551,103,1,23,neutral,none,left,right,1,0.4416558999946574,0
551,104,1,24,valid,right,right,left,0,0.8990139000088675,0
551,105,1,25,valid,right,right,left,0,0.9513028000073972,0
551,106,1,26,valid,left,left,left,0,0.6735806000069715,1
551,107,1,27,neutral,none,left,right,1,1.3739474000030896,0
551,108,1,28,invalid,right,left,left,0,0.7207429999980377,1
551,109,1,29,invalid,right,left,right,1,0.5287501999991946,0
551,110,1,30,neutral,none,left,left,0,0.5867182999936631,1
551,111,1,31,neutral,none,right,right,1,0.7629151000001002,1
551,112,1,32,neutral,none,right,left,0,0.6847639000043273,0
551,113,1,33,valid,left,left,right,1,0.6962241000001086,0
551,114,1,34,neutral,none,left,left,0,0.8588328000041656,1
551,115,1,35,neutral,none,left,left,0,0.7883092000120087,1
551,116,1,36,valid,left,left,left,0,0.6241937000013422,1
551,117,1,37,neutral,none,right,left,0,0.7790045000001555,0
551,118,1,38,invalid,right,left,right,1,0.5323254000104498,0
551,119,1,39,neutral,none,right,left,0,0.7312298000033479,0
551,120,1,40,invalid,left,right,left,0,0.5968637000041781,0
551,121,1,41,valid,right,right,right,1,0.6135253999964334,1
551,122,1,42,valid,left,left,right,1,0.8677925999945728,0
551,123,1,43,neutral,none,left,right,1,0.8252841999928933,0
551,124,1,44,neutral,none,left,left,0,1.01434789999621,1
551,125,1,45,neutral,none,right,right,1,0.5152884999988601,1
551,126,1,46,valid,right,right,left,0,0.6788973999937298,0
551,127,1,47,valid,left,left,right,1,0.7550423999928171,0
551,128,1,48,neutral,none,right,right,1,0.7420637999894097,1
551,129,1,49,valid,left,left,left,0,1.017712799992296,1
551,130,1,50,valid,right,right,right,1,0.7616892999940319,1
551,131,1,51,valid,right,right,left,0,0.4861296000017319,0
551,132,1,52,neutral,none,right,right,1,0.6984751999989385,1
551,133,1,53,neutral,none,left,right,1,0.9986861000070348,0
551,134,1,54,neutral,none,right,left,0,0.6080449000000954,0
551,135,1,55,neutral,none,left,right,1,0.7554181000014069,0
551,136,1,56,valid,left,left,left,0,1.1479868000023998,1
551,137,1,57,valid,left,left,right,1,0.6519394999922952,0
551,138,1,58,neutral,none,right,left,0,0.8765081000019563,0
551,139,1,59,neutral,none,right,right,1,0.7601490999950329,1
551,140,1,60,neutral,none,left,right,1,0.6540084000007482,0
551,141,1,61,valid,right,right,left,0,0.6270673999970313,0
551,142,1,62,neutral,none,left,left,0,1.2069608999881891,1
551,143,1,63,valid,right,right,right,1,0.992719699992449,1
551,144,1,64,invalid,left,right,right,1,0.6306735999969533,1
551,145,1,65,neutral,none,right,left,0,1.199886799993692,0
551,146,1,66,invalid,right,left,right,1,0.836737700010417,0
551,147,1,67,valid,right,right,left,0,0.7806631999992533,0
551,148,1,68,valid,left,left,right,1,1.106383200007258,0
551,149,1,69,neutral,none,right,left,0,0.5479541000095196,0
551,150,1,70,valid,right,right,left,0,0.7525833999970928,0
551,151,1,71,neutral,none,right,left,0,0.8122428000060609,0
551,152,1,72,valid,right,right,right,1,0.8530185999989044,1
551,153,1,73,valid,left,left,left,0,0.912566600003629,1
551,154,1,74,valid,left,left,right,1,1.0015946999919834,0
551,155,1,75,neutral,none,left,left,0,0.7396239999943646,1
551,156,1,76,valid,right,right,left,0,1.1986280999990413,0
551,157,1,77,neutral,none,left,left,0,1.3138189000019338,1
551,158,1,78,valid,right,right,right,1,1.0135976999881675,1
551,159,1,79,valid,right,right,right,1,0.7260492999921553,1
750,0,0,0,valid,right,right,right,1,0.23102609999477863,1
750,1,0,1,valid,right,right,right,1,0.2391291999956593,1
750,2,0,2,valid,left,left,left,0,0.7646716999879573,1
750,3,0,3,valid,right,right,right,1,0.31694210000569,1
750,4,0,4,neutral,none,left,right,1,0.8805888000060804,0
750,5,0,5,valid,right,right,right,1,0.24805739999283105,1
750,6,0,6,neutral,none,right,left,0,1.3537575000082145,0
750,7,0,7,neutral,none,right,left,0,0.3038759999908507,0
750,8,0,8,valid,left,left,left,0,0.29908440000144765,1
750,9,0,9,valid,right,right,right,1,0.3332819000061136,1
750,10,0,10,neutral,none,left,right,1,1.2113692999992054,0
750,11,0,11,valid,left,left,left,0,1.2726321000081953,1
750,12,0,12,neutral,none,right,left,0,NA,0
750,13,0,13,valid,left,left,left,0,0.45231709998915903,1
750,14,0,14,valid,right,right,left,0,NA,0
750,15,0,15,neutral,none,left,left,0,0.9682693000067956,1
750,16,0,16,valid,left,left,left,0,0.7024367999983951,1
750,17,0,17,neutral,none,right,right,1,0.5930659000005107,1
750,18,0,18,valid,left,left,left,0,0.2298910999961663,1
750,19,0,19,neutral,none,right,left,0,0.2713389999989886,0
750,20,0,20,invalid,right,left,right,1,0.2642588999879081,0
750,21,0,21,valid,left,left,left,0,0.31338700000196695,1
750,22,0,22,valid,right,right,right,1,0.3645410000171978,1
750,23,0,23,neutral,none,left,left,0,0.6276453000027686,1
750,24,0,24,valid,left,left,left,0,0.3032760000205599,1
750,25,0,25,neutral,none,left,right,1,0.2523843999952078,0
750,26,0,26,invalid,right,left,right,1,0.452351899992209,0
750,27,0,27,neutral,none,left,left,0,0.7065537000016775,1
750,28,0,28,valid,right,right,left,0,1.0477972999797205,0
750,29,0,29,valid,left,left,left,0,0.23983720000251196,1
750,30,0,30,neutral,none,left,left,0,0.48644700000295416,1
750,31,0,31,valid,left,left,left,0,0.2721978999907151,1
750,32,0,32,valid,right,right,right,1,0.3996719999995548,1
750,33,0,33,invalid,right,left,right,1,0.336736800003564,0
750,34,0,34,invalid,left,right,left,0,0.31392549999873154,0
750,35,0,35,valid,left,left,right,1,0.6962347000080626,0
750,36,0,36,neutral,none,left,left,0,0.6808580000069924,1
750,37,0,37,neutral,none,left,left,0,0.622001999989152,1
750,38,0,38,valid,right,right,right,1,0.2756650999945123,1
750,39,0,39,neutral,none,left,right,1,0.6905141999886837,0
750,40,0,40,valid,left,left,left,0,0.28900260000955313,1
750,41,0,41,neutral,none,right,left,0,0.7311199000105262,0
750,42,0,42,neutral,none,left,right,1,0.6277362999971956,0
750,43,0,43,neutral,none,left,left,0,0.2932880000153091,1
750,44,0,44,neutral,none,right,left,0,0.5008247999940068,0
750,45,0,45,neutral,none,right,left,0,0.7513038000033703,0
750,46,0,46,valid,right,right,right,1,0.5594344999990426,1
750,47,0,47,neutral,none,left,right,1,0.2345097000070382,0
750,48,0,48,neutral,none,left,right,1,0.3136673000117298,0
750,49,0,49,neutral,none,right,right,1,0.29633490002015606,1
750,50,0,50,invalid,left,right,left,0,0.4410607000172604,0
750,51,0,51,neutral,none,right,right,1,0.4878440999891609,1
750,52,0,52,valid,left,left,left,0,0.29335579997859895,1
750,53,0,53,neutral,none,right,left,0,0.6416297999967355,0
750,54,0,54,neutral,none,left,right,1,0.4802446999819949,0
750,55,0,55,valid,left,left,left,0,0.5250077999953646,1
750,56,0,56,valid,right,right,left,0,NA,0
750,57,0,57,neutral,none,right,right,1,0.3974345999886282,1
750,58,0,58,neutral,none,right,left,0,0.6506370000133757,0
750,59,0,59,invalid,right,left,right,1,0.4372470000234898,0
750,60,0,60,neutral,none,right,left,0,0.7389153999974951,0
750,61,0,61,neutral,none,left,right,1,0.47903829999268055,0
750,62,0,62,neutral,none,left,left,0,0.5556406000105198,1
750,63,0,63,neutral,none,right,left,0,0.7776324000151362,0
750,64,0,64,neutral,none,right,right,1,0.4342721000139136,1
750,65,0,65,neutral,none,left,right,1,0.6545589000161272,0
750,66,0,66,valid,left,left,left,0,0.3819346000091173,1
750,67,0,67,neutral,none,right,left,0,0.4310237000172492,0
750,68,0,68,valid,right,right,right,1,0.29691219999222085,1
750,69,0,69,neutral,none,left,right,1,0.930722400022205,0
750,70,0,70,neutral,none,right,right,1,0.9867728000099304,1
750,71,0,71,neutral,none,right,left,0,0.9675319000089077,0
750,72,0,72,valid,right,right,right,1,0.4254042999818921,1
750,73,0,73,valid,left,left,left,0,0.3027833000232931,1
750,74,0,74,valid,right,right,right,1,0.39438630000222474,1
750,75,0,75,neutral,none,left,left,0,0.27621609999914654,1
750,76,0,76,invalid,left,right,left,0,0.3123838000174146,0
750,77,0,77,neutral,none,right,left,0,0.6048753999930341,0
750,78,0,78,valid,right,right,right,1,0.4372507999942172,1
750,79,0,79,invalid,left,right,left,0,0.2436380999861285,0
750,80,1,0,neutral,none,left,left,0,0.3180065999913495,1
750,81,1,1,invalid,right,left,right,1,0.5840854999842122,0
750,82,1,2,valid,right,right,right,1,0.32413029999588616,1
750,83,1,3,neutral,none,right,right,1,0.700972400023602,1
750,84,1,4,valid,left,left,right,1,0.5131669999973383,0
750,85,1,5,neutral,none,left,left,0,NA,1
750,86,1,6,valid,left,left,left,0,0.6684175999835134,1
750,87,1,7,invalid,right,left,left,0,0.5030047000036575,1
750,88,1,8,invalid,left,right,left,0,0.6969486000016332,0
750,89,1,9,neutral,none,right,right,1,0.6931427999807056,1
750,90,1,10,valid,left,left,right,1,0.4126888000173494,0
750,91,1,11,valid,right,right,right,1,0.2682879000203684,1
750,92,1,12,valid,left,left,right,1,0.4467365999880713,0
750,93,1,13,neutral,none,left,left,0,0.29095399999641813,1
750,94,1,14,valid,right,right,right,1,0.45075920000090264,1
750,95,1,15,neutral,none,left,left,0,NA,1
750,96,1,16,valid,right,right,right,1,0.3370340999972541,1
750,97,1,17,valid,left,left,left,0,0.5254810000187717,1
750,98,1,18,neutral,none,right,left,0,0.33186549998936243,0
750,99,1,19,neutral,none,right,right,1,0.4703138000040781,1
750,100,1,20,neutral,none,right,left,0,0.27247429999988526,0
750,101,1,21,neutral,none,left,right,1,0.9168174999940676,0
750,102,1,22,valid,right,right,right,1,0.5262786000093911,1
750,103,1,23,neutral,none,left,left,0,0.40443249998497777,1
750,104,1,24,neutral,none,right,right,1,0.46389929999713786,1
750,105,1,25,valid,right,right,right,1,0.4067122999986168,1
750,106,1,26,neutral,none,left,right,1,0.33381569999619387,0
750,107,1,27,valid,right,right,right,1,0.9105453000229318,1
750,108,1,28,neutral,none,left,right,1,0.6851303000003099,0
750,109,1,29,invalid,left,right,left,0,0.869927199993981,0
750,110,1,30,neutral,none,right,right,1,0.523357500002021,1
750,111,1,31,neutral,none,right,right,1,0.4146153000183403,1
750,112,1,32,neutral,none,left,right,1,0.4714737000176683,0
750,113,1,33,valid,left,left,right,1,1.0284929999907035,0
750,114,1,34,valid,right,right,right,1,0.6571485000022221,1
750,115,1,35,neutral,none,left,left,0,0.2719498999940697,1
750,116,1,36,valid,left,left,left,0,0.26486719999229535,1
750,117,1,37,neutral,none,left,right,1,0.33563230000436306,0
750,118,1,38,neutral,none,left,right,1,0.9023173000023236,0
750,119,1,39,valid,left,left,left,0,0.4536558999971021,1
750,120,1,40,neutral,none,left,left,0,0.9126155999838376,1
750,121,1,41,neutral,none,right,right,1,0.4590852000110317,1
750,122,1,42,valid,left,left,left,0,0.48686169998836704,1
750,123,1,43,invalid,left,right,left,0,0.7254778000060469,0
750,124,1,44,valid,right,right,right,1,0.6170710999867879,1
750,125,1,45,neutral,none,right,left,0,NA,0
750,126,1,46,valid,left,left,left,0,0.40759089999482967,1
750,127,1,47,invalid,right,left,right,1,0.3360263000067789,0
750,128,1,48,valid,right,right,right,1,0.38937990000704303,1
750,129,1,49,neutral,none,left,right,1,0.933518500009086,0
750,130,1,50,invalid,right,left,right,1,0.33698069999809377,0
750,131,1,51,valid,left,left,left,0,0.2459775000170339,1
750,132,1,52,neutral,none,right,left,0,0.9926806999719702,0
750,133,1,53,valid,right,right,right,1,0.8111990999896079,1
750,134,1,54,valid,left,left,left,0,0.3827479000028689,1
750,135,1,55,valid,right,right,right,1,0.3343493999855127,1
750,136,1,56,invalid,left,right,left,0,0.29932649998227134,0
750,137,1,57,neutral,none,right,left,0,0.6227086000144482,0
750,138,1,58,valid,right,right,right,1,0.2805944999854546,1
750,139,1,59,neutral,none,right,left,0,0.5366701000020839,0
750,140,1,60,valid,left,left,left,0,0.8587958000134677,1
750,141,1,61,neutral,none,right,left,0,NA,0
750,142,1,62,neutral,none,right,right,1,0.37940780000644736,1
750,143,1,63,neutral,none,right,left,0,0.8756201000069268,0
750,144,1,64,neutral,none,right,right,1,0.481369299988728,1
750,145,1,65,neutral,none,left,left,0,0.4633314000093378,1
750,146,1,66,neutral,none,right,left,0,NA,0
750,147,1,67,valid,right,right,right,1,0.41232440000749193,1
750,148,1,68,neutral,none,left,left,0,0.2908688000170514,1
750,149,1,69,valid,left,left,left,0,0.4241827999940142,1
750,150,1,70,valid,left,left,left,0,0.657305600005202,1
750,151,1,71,neutral,none,left,left,0,0.8696994000056293,1
750,152,1,72,valid,right,right,left,0,0.7243130999850109,0
750,153,1,73,valid,left,left,left,0,NA,1
750,154,1,74,neutral,none,right,left,0,0.7387687999871559,0
750,155,1,75,valid,right,right,right,1,0.6244492999976501,1
750,156,1,76,neutral,none,left,left,0,0.4521564999886323,1
750,157,1,77,neutral,none,left,right,1,0.46043079998344183,0
750,158,1,78,neutral,none,left,right,1,0.35854879999533296,0
750,159,1,79,neutral,none,right,left,0,0.5674104999925476,0
899,0,0,0,neutral,none,right,left,0,0.9156192080117762,0
899,1,0,1,valid,left,left,left,0,0.9812904999998864,1
899,2,0,2,neutral,none,right,left,0,0.8787091660051374,0
899,3,0,3,invalid,right,left,left,0,0.9191497080028056,1
899,4,0,4,valid,right,right,left,0,0.8519335409946507,0
899,5,0,5,valid,left,left,left,0,0.7261847490008222,1
899,6,0,6,neutral,none,right,left,0,0.9170664999983272,0
899,7,0,7,valid,left,left,right,1,1.1081719579960918,0
899,8,0,8,neutral,none,left,left,0,0.7613899580028374,1
899,9,0,9,neutral,none,left,right,1,0.8312384580058279,0
899,10,0,10,valid,right,right,left,0,1.046933332996559,0
899,11,0,11,neutral,none,right,left,0,0.8926101660035783,0
899,12,0,12,neutral,none,left,left,0,1.16694299998926,1
899,13,0,13,neutral,none,right,right,1,0.931871291992138,1
899,14,0,14,neutral,none,right,left,0,NA,0
899,15,0,15,invalid,right,left,left,0,0.8948905409924919,1
899,16,0,16,neutral,none,left,left,0,1.00249199999962,1
899,17,0,17,valid,right,right,left,0,NA,0
899,18,0,18,invalid,left,right,right,1,0.9835804999893298,1
899,19,0,19,valid,left,left,left,0,0.8193101659999229,1
899,20,0,20,valid,left,left,left,0,0.7238530419999734,1
899,21,0,21,neutral,none,left,right,1,0.7888957079994725,0
899,22,0,22,valid,right,right,right,1,0.9069731240015244,1
899,23,0,23,valid,right,right,left,0,0.8385691669973312,0
899,24,0,24,neutral,none,left,left,0,0.9703612489975058,1
899,25,0,25,valid,left,left,left,0,0.7981874580000294,1
899,26,0,26,neutral,none,left,left,0,NA,1
899,27,0,27,valid,left,left,right,1,0.6228274159948342,0
899,28,0,28,invalid,right,left,right,1,1.0492840000079011,0
899,29,0,29,neutral,none,left,right,1,0.7844115830084775,0
899,30,0,30,invalid,left,right,right,1,0.7394144160061842,1
899,31,0,31,neutral,none,left,right,1,0.771478123991983,0
899,32,0,32,invalid,left,right,left,0,0.6493148330046097,0
899,33,0,33,valid,left,left,right,1,1.002679708006326,0
899,34,0,34,valid,left,left,left,0,1.2145013330009533,1
899,35,0,35,neutral,none,right,right,1,0.7662027079932159,1
899,36,0,36,valid,right,right,right,1,0.6653252500109375,1
899,37,0,37,neutral,none,right,right,1,0.7286456659930991,1
899,38,0,38,valid,right,right,right,1,0.5900778749928577,1
899,39,0,39,valid,left,left,right,1,0.7245331250014715,0
899,40,0,40,valid,left,left,right,1,0.6490368740051053,0
899,41,0,41,valid,right,right,left,0,0.6691650419961661,0
899,42,0,42,neutral,none,left,left,0,0.924928541004192,1
899,43,0,43,invalid,right,left,left,0,0.9031962489971193,1
899,44,0,44,neutral,none,left,left,0,0.9844818749988916,1
899,45,0,45,neutral,none,right,left,0,0.7282812500052387,0
899,46,0,46,invalid,left,right,left,0,0.5950630829902366,0
899,47,0,47,neutral,none,right,right,1,0.8311754159949487,1
899,48,0,48,valid,left,left,left,0,0.6443235830083722,1
899,49,0,49,neutral,none,right,right,1,0.7053492080012802,1
899,50,0,50,valid,right,right,right,1,0.6631720419973135,1
899,51,0,51,neutral,none,left,left,0,1.317659624008229,1
899,52,0,52,neutral,none,right,left,0,1.3790262909897135,0
899,53,0,53,neutral,none,left,left,0,0.8411630829941714,1
899,54,0,54,neutral,none,left,left,0,0.9274410420039204,1
899,55,0,55,neutral,none,right,right,1,0.9006654159893515,1
899,56,0,56,neutral,none,right,right,1,1.003661916998681,1
899,57,0,57,neutral,none,left,left,0,0.8410221670055762,1
899,58,0,58,neutral,none,right,right,1,1.2744846669957042,1
899,59,0,59,valid,right,right,right,1,1.3086089580028784,1
899,60,0,60,valid,left,left,right,1,1.439905582999927,0
899,61,0,61,valid,left,left,left,0,0.7873132080130745,1
899,62,0,62,valid,right,right,right,1,0.6791380000067875,1
899,63,0,63,valid,right,right,left,0,1.3852211670018733,0
899,64,0,64,neutral,none,right,right,1,0.6725690000021132,1
899,65,0,65,valid,right,right,right,1,0.7924715419940185,1
899,66,0,66,valid,right,right,left,0,NA,0
899,67,0,67,neutral,none,right,left,0,0.8502411670051515,0
899,68,0,68,valid,right,right,right,1,0.6445592910022242,1
899,69,0,69,neutral,none,left,left,0,0.8791941249946831,1
899,70,0,70,neutral,none,left,left,0,0.7127909990085755,1
899,71,0,71,neutral,none,right,left,0,1.1896443739969982,0
899,72,0,72,valid,right,right,left,0,0.6652187909930944,0
899,73,0,73,neutral,none,left,left,0,0.8641050830046879,1
899,74,0,74,neutral,none,right,left,0,0.6778430830017896,0
899,75,0,75,neutral,none,left,left,0,0.6508359580038814,1
899,76,0,76,valid,left,left,left,0,0.6545639579999261,1
899,77,0,77,neutral,none,right,left,0,0.5996509170072386,0
899,78,0,78,neutral,none,left,left,0,0.5935722080030246,1
899,79,0,79,valid,left,left,left,0,0.706143040995812,1
899,80,1,0,valid,left,left,left,0,0.49281499900098424,1
899,81,1,1,invalid,left,right,right,1,0.49112649899325334,1
899,82,1,2,valid,left,left,left,0,0.5832584159943508,1
899,83,1,3,neutral,none,right,right,1,0.8993871660059085,1
899,84,1,4,neutral,none,left,left,0,0.5953356660029385,1
899,85,1,5,neutral,none,left,left,0,0.966184125005384,1
899,86,1,6,valid,right,right,left,0,1.3434635419980625,0
899,87,1,7,neutral,none,right,right,1,1.0429292079934385,1
899,88,1,8,neutral,none,right,right,1,0.8364347080059815,1
899,89,1,9,neutral,none,right,right,1,0.8907584580010734,1
899,90,1,10,neutral,none,left,left,0,1.3533992919983575,1
899,91,1,11,valid,left,left,left,0,NA,1
899,92,1,12,valid,right,right,right,1,0.8223877080017701,1
899,93,1,13,invalid,right,left,left,0,NA,1
899,94,1,14,neutral,none,right,right,1,0.6121057499985909,1
899,95,1,15,neutral,none,right,right,1,1.227679417002946,1
899,96,1,16,neutral,none,right,right,1,0.6269882909982698,1
899,97,1,17,valid,right,right,right,1,0.6516736250050599,1
899,98,1,18,neutral,none,right,right,1,0.8709541659918614,1
899,99,1,19,neutral,none,right,left,0,NA,0
899,100,1,20,valid,left,left,left,0,0.5480084989976604,1
899,101,1,21,valid,right,right,left,0,0.8168580409983406,0
899,102,1,22,neutral,none,left,left,0,1.2077449170028558,1
899,103,1,23,neutral,none,right,right,1,0.7867585829953896,1
899,104,1,24,valid,left,left,left,0,0.9926302079984451,1
899,105,1,25,neutral,none,left,left,0,0.938645208007074,1
899,106,1,26,neutral,none,left,left,0,0.6024913750006817,1
899,107,1,27,invalid,right,left,left,0,0.7299224579910515,1
899,108,1,28,neutral,none,left,left,0,0.5940889990015421,1
899,109,1,29,valid,right,right,right,1,1.0789052080071997,1
899,110,1,30,neutral,none,right,left,0,0.8067060000030324,0
899,111,1,31,neutral,none,left,left,0,0.9539389579877025,1
899,112,1,32,valid,right,right,left,0,0.5727119999937713,0
899,113,1,33,valid,left,left,left,0,0.7036925410066033,1
899,114,1,34,valid,right,right,right,1,0.6377979160024552,1
899,115,1,35,neutral,none,left,left,0,0.9522501250030472,1
899,116,1,36,neutral,none,left,left,0,0.6127902489970438,1
899,117,1,37,valid,left,left,left,0,0.5642129579937318,1
899,118,1,38,neutral,none,left,left,0,0.5806444170011673,1
899,119,1,39,neutral,none,left,left,0,0.6093426250008633,1
899,120,1,40,neutral,none,left,left,0,0.5049515410064487,1
899,121,1,41,valid,right,right,left,0,0.5474633330013603,0
899,122,1,42,valid,left,left,left,0,0.4723935829970287,1
899,123,1,43,neutral,none,right,left,0,0.505154874001164,0
899,124,1,44,valid,right,right,left,0,0.711980833002599,0
899,125,1,45,neutral,none,right,left,0,0.550191749993246,0
899,126,1,46,valid,left,left,left,0,0.6715059160051169,1
899,127,1,47,valid,left,left,left,0,0.6142957080010092,1
899,128,1,48,neutral,none,right,left,0,NA,0
899,129,1,49,valid,right,right,left,0,1.083397958005662,0
899,130,1,50,neutral,none,right,right,1,0.9478215419949264,1
899,131,1,51,neutral,none,left,left,0,1.2110471659980249,1
899,132,1,52,valid,left,left,left,0,0.5336415000056149,1
899,133,1,53,neutral,none,left,left,0,0.5680668329878245,1
899,134,1,54,neutral,none,left,left,0,1.0075294170092093,1
899,135,1,55,invalid,left,right,left,0,1.4209185000072466,0
899,136,1,56,neutral,none,right,right,1,0.8020012080087326,1
899,137,1,57,valid,left,left,left,0,0.849813583001378,1
899,138,1,58,invalid,left,right,right,1,1.1000167500023963,1
899,139,1,59,invalid,right,left,left,0,1.020006167003885,1
899,140,1,60,valid,right,right,right,1,0.944537916002446,1
899,141,1,61,neutral,none,right,right,1,1.0035654159873957,1
899,142,1,62,valid,right,right,right,1,1.087481791008031,1
899,143,1,63,valid,right,right,left,0,NA,0
899,144,1,64,neutral,none,left,left,0,0.9059316240018234,1
899,145,1,65,neutral,none,left,right,1,0.8521567919960944,0
899,146,1,66,valid,left,left,left,0,0.596060750001925,1
899,147,1,67,invalid,left,right,left,0,0.5971914580004523,0
899,148,1,68,neutral,none,left,left,0,0.6847924159956165,1
899,149,1,69,neutral,none,left,left,0,0.970919583007344,1
899,150,1,70,valid,right,right,right,1,1.260379624000052,1
899,151,1,71,valid,right,right,right,1,1.010608123993734,1
899,152,1,72,valid,right,right,right,1,0.7932716249924852,1
899,153,1,73,valid,left,left,left,0,0.5905507909919834,1
899,154,1,74,neutral,none,right,left,0,NA,0
899,155,1,75,valid,left,left,left,0,0.684267082993756,1
899,156,1,76,neutral,none,right,right,1,0.7424101240030723,1
899,157,1,77,invalid,right,left,left,0,0.7235902500106022,1
899,158,1,78,neutral,none,right,left,0,0.9778289159876294,0
899,159,1,79,valid,left,left,left,0,1.0424537910002982,1
749,0,0,0,valid,right,right,right,1,0.2196524570026668,1
749,1,0,1,neutral,none,right,left,0,0.6022225829947274,0
749,2,0,2,valid,right,right,left,0,0.5661091660003876,0
749,3,0,3,valid,left,left,left,0,NA,1
749,4,0,4,neutral,none,left,left,0,0.39594208300695755,1
749,5,0,5,neutral,none,left,left,0,0.5626296659902437,1
749,6,0,6,valid,left,left,left,0,0.4957298329973128,1
749,7,0,7,valid,right,right,right,1,0.7541342910117237,1
749,8,0,8,valid,right,right,right,1,0.7070848319999641,1
749,9,0,9,valid,right,right,right,1,0.666105875003268,1
749,10,0,10,neutral,none,left,left,0,NA,1
749,11,0,11,neutral,none,left,right,1,0.6476392080076039,0
749,12,0,12,invalid,left,right,right,1,0.5220353319891728,1
749,13,0,13,invalid,left,right,right,1,0.6041045829915674,1
749,14,0,14,neutral,none,left,right,1,0.5997984159912448,0
749,15,0,15,neutral,none,right,right,1,0.7410782069928246,1
749,16,0,16,neutral,none,right,left,0,NA,0
749,17,0,17,neutral,none,left,right,1,0.6600305409956491,0
749,18,0,18,valid,right,right,left,0,NA,0
749,19,0,19,neutral,none,right,right,1,0.558086707998882,1
749,20,0,20,neutral,none,left,left,0,NA,1
749,21,0,21,valid,left,left,left,0,NA,1
749,22,0,22,neutral,none,left,left,0,NA,1
749,23,0,23,neutral,none,right,left,0,0.591766915997141,0
749,24,0,24,neutral,none,left,left,0,NA,1
749,25,0,25,neutral,none,right,right,1,0.6935737079911632,1
749,26,0,26,valid,right,right,left,0,NA,0
749,27,0,27,neutral,none,right,right,1,0.4974517499940702,1
749,28,0,28,neutral,none,left,right,1,0.5384076250047656,0
749,29,0,29,valid,left,left,right,1,0.5742549989954568,0
749,30,0,30,valid,right,right,right,1,0.44668429100420326,1
749,31,0,31,valid,right,right,right,1,0.475193541002227,1
749,32,0,32,neutral,none,right,right,1,0.3693164989963406,1
749,33,0,33,valid,right,right,right,1,0.44215733199962415,1
749,34,0,34,neutral,none,right,right,1,0.47230329101148527,1
749,35,0,35,neutral,none,left,right,1,0.46260683199216146,0
749,36,0,36,neutral,none,right,right,1,0.513305874002981,1
749,37,0,37,valid,left,left,left,0,0.6154521239950554,1
749,38,0,38,valid,right,right,right,1,0.4783820410084445,1
749,39,0,39,valid,left,left,right,1,0.6284149990096921,0
749,40,0,40,neutral,none,right,right,1,0.4937992909981403,1
749,41,0,41,neutral,none,left,right,1,0.5564916250004899,0
749,42,0,42,invalid,right,left,right,1,0.5048971240030369,0
749,43,0,43,neutral,none,left,left,0,0.22760124898923095,1
749,44,0,44,valid,left,left,right,1,0.582062165995012,0
749,45,0,45,valid,left,left,right,1,0.5408922079950571,0
749,46,0,46,invalid,right,left,left,0,0.6082161660015117,1
749,47,0,47,valid,right,right,right,1,0.72623366600601,1
749,48,0,48,neutral,none,right,right,1,0.4793259159923764,1
749,49,0,49,valid,right,right,right,1,0.4247359580040211,1
749,50,0,50,valid,left,left,right,1,0.5176257490093121,0
749,51,0,51,valid,left,left,right,1,0.5995555830013473,0
749,52,0,52,neutral,none,left,right,1,0.41702187499322463,0
749,53,0,53,neutral,none,right,right,1,0.6496913329901872,1
749,54,0,54,neutral,none,left,right,1,0.4101735410076799,0
749,55,0,55,invalid,left,right,right,1,0.4764314160129288,1
749,56,0,56,neutral,none,left,right,1,0.5541127909964416,0
749,57,0,57,valid,left,left,right,1,0.45141537400195375,0
749,58,0,58,valid,right,right,right,1,0.5023787069949321,1
749,59,0,59,invalid,right,left,left,0,NA,1
749,60,0,60,neutral,none,left,right,1,0.5506990410067374,0
749,61,0,61,valid,right,right,right,1,0.4422238330007531,1
749,62,0,62,neutral,none,right,right,1,0.43363191600656137,1
749,63,0,63,valid,left,left,right,1,0.6560578740027267,0
749,64,0,64,neutral,none,right,right,1,0.3987724159960635,1
749,65,0,65,valid,left,left,right,1,0.5252446660015266,0
749,66,0,66,neutral,none,right,right,1,0.6004424989951076,1
749,67,0,67,neutral,none,left,right,1,0.3854774990031729,0
749,68,0,68,valid,right,right,right,1,0.5273113739967812,1
749,69,0,69,invalid,left,right,right,1,0.5191546240093885,1
749,70,0,70,valid,left,left,right,1,0.572031916002743,0
749,71,0,71,invalid,right,left,right,1,0.4628696659929119,0
749,72,0,72,valid,left,left,right,1,0.4781864159886027,0
749,73,0,73,neutral,none,right,right,1,0.4425404159992467,1
749,74,0,74,neutral,none,right,right,1,0.4803112069930648,1
749,75,0,75,valid,left,left,right,1,0.6658487910026452,0
749,76,0,76,neutral,none,left,right,1,0.6602279159997124,0
749,77,0,77,neutral,none,right,right,1,0.6456168330041692,1
749,78,0,78,neutral,none,left,right,1,0.3801693739951588,0
749,79,0,79,neutral,none,right,right,1,0.7190493320085807,1
749,80,1,0,neutral,none,right,right,1,0.448119916007272,1
749,81,1,1,neutral,none,right,right,1,0.4796834580047289,1
749,82,1,2,neutral,none,right,right,1,0.4934446240076795,1
749,83,1,3,neutral,none,right,right,1,0.42325570799584966,1
749,84,1,4,valid,left,left,right,1,0.6994128740043379,0
749,85,1,5,neutral,none,right,right,1,0.7135209160041995,1
749,86,1,6,invalid,right,left,left,0,NA,1
749,87,1,7,invalid,left,right,right,1,0.6120257489965297,1
749,88,1,8,valid,left,left,right,1,0.5979537079983857,0
749,89,1,9,neutral,none,left,right,1,0.4949613740027417,0
749,90,1,10,neutral,none,right,right,1,0.496931665999,1
749,91,1,11,valid,right,right,right,1,0.6248012080031913,1
749,92,1,12,valid,left,left,right,1,0.4644582909968449,0
749,93,1,13,neutral,none,left,right,1,0.6169045410060789,0
749,94,1,14,valid,left,left,left,0,NA,1
749,95,1,15,invalid,right,left,left,0,NA,1
749,96,1,16,neutral,none,right,right,1,0.6513456249958836,1
749,97,1,17,neutral,none,right,left,0,0.5497248750034487,0
749,98,1,18,valid,left,left,right,1,0.5560683749936288,0
749,99,1,19,valid,right,right,right,1,0.4840684160008095,1
749,100,1,20,invalid,right,left,left,0,0.6714895829936722,1
749,101,1,21,neutral,none,left,right,1,0.7081928740080912,0
749,102,1,22,neutral,none,left,right,1,0.7230215819872683,0
749,103,1,23,neutral,none,right,right,1,0.5930066659930162,1
749,104,1,24,valid,right,right,left,0,NA,0
749,105,1,25,neutral,none,left,right,1,0.6417625000030966,0
749,106,1,26,neutral,none,right,right,1,0.45991249999497086,1
749,107,1,27,neutral,none,left,right,1,0.4025213330023689,0
749,108,1,28,valid,right,right,right,1,0.5087234160018852,1
749,109,1,29,valid,right,right,right,1,0.6391371240024455,1
749,110,1,30,neutral,none,left,right,1,0.5485587079892866,0
749,111,1,31,neutral,none,left,right,1,0.528652957000304,0
749,112,1,32,neutral,none,right,right,1,0.4517931659938768,1
749,113,1,33,neutral,none,right,right,1,0.45551329100271687,1
749,114,1,34,neutral,none,left,right,1,0.4810944579949137,0
749,115,1,35,neutral,none,left,right,1,0.4241777909919619,0
749,116,1,36,neutral,none,right,right,1,0.5071189159934875,1
749,117,1,37,valid,left,left,right,1,0.3981953330076067,0
749,118,1,38,valid,left,left,right,1,0.6472837070032256,0
749,119,1,39,neutral,none,left,left,0,NA,1
749,120,1,40,neutral,none,right,right,1,0.4125614160002442,1
749,121,1,41,neutral,none,left,right,1,0.41827254099189304,0
749,122,1,42,neutral,none,left,left,0,NA,1
749,123,1,43,valid,right,right,right,1,0.7212063319893787,1
749,124,1,44,valid,right,right,right,1,0.6141774570132839,1
749,125,1,45,invalid,left,right,left,0,NA,0
749,126,1,46,valid,right,right,right,1,0.6117368739942322,1
749,127,1,47,valid,left,left,right,1,0.5018851240020012,0
749,128,1,48,neutral,none,right,right,1,0.668002124002669,1
749,129,1,49,valid,right,right,right,1,0.47274900000775233,1
749,130,1,50,neutral,none,left,right,1,0.3678365829982795,0
749,131,1,51,valid,right,right,right,1,0.6819478329998674,1
749,132,1,52,valid,right,right,right,1,0.5216793330037035,1
749,133,1,53,valid,left,left,right,1,0.5401521659950959,0
749,134,1,54,neutral,none,left,left,0,0.733048416004749,1
749,135,1,55,valid,left,left,left,0,NA,1
749,136,1,56,neutral,none,left,left,0,0.5422430409962544,1
749,137,1,57,valid,right,right,left,0,0.6579460409993771,0
749,138,1,58,neutral,none,right,left,0,0.5506335829995805,0
749,139,1,59,valid,left,left,right,1,0.3116194159956649,0
749,140,1,60,neutral,none,left,left,0,0.49930445800418966,1
749,141,1,61,invalid,left,right,left,0,0.7033859160001157,0
749,142,1,62,valid,left,left,left,0,0.5218318739935057,1
749,143,1,63,valid,right,right,left,0,0.4579310830013128,0
749,144,1,64,valid,right,right,left,0,0.6183479579922277,0
749,145,1,65,neutral,none,left,left,0,0.569174332995317,1
749,146,1,66,valid,right,right,left,0,0.5242107070080237,0
749,147,1,67,valid,left,left,left,0,0.5398246659897268,1
749,148,1,68,valid,left,left,left,0,0.48302687499381136,1
749,149,1,69,neutral,none,right,left,0,0.5143940410052892,0
749,150,1,70,invalid,right,left,left,0,0.5332094999903347,1
749,151,1,71,neutral,none,left,left,0,0.5966744580073282,1
749,152,1,72,neutral,none,left,left,0,NA,1
749,153,1,73,valid,left,left,left,0,0.5189392490137834,1
749,154,1,74,invalid,left,right,left,0,0.26547733299958054,0
749,155,1,75,neutral,none,right,left,0,0.6828600830049254,0
749,156,1,76,valid,left,left,left,0,0.5494731240032706,1
749,157,1,77,neutral,none,right,right,1,0.6501921659946674,1
749,158,1,78,valid,right,right,left,0,NA,0
749,159,1,79,neutral,none,right,left,0,NA,0
294,0,0,0,valid,left,left,left,0,0.744707299862057,1
294,1,0,1,valid,left,left,left,0,0.912779500009492,1
294,2,0,2,valid,left,left,left,0,0.7818773000035435,1
294,3,0,3,invalid,left,right,right,1,0.8151821999344975,1
294,4,0,4,valid,right,right,right,1,0.42890010005794466,1
294,5,0,5,neutral,none,left,left,0,0.92057109996676445,1
294,6,0,6,neutral,none,right,left,0,1.1146643001120538,0
294,7,0,7,neutral,none,right,left,0,1.3378494998905808,0
294,8,0,8,valid,right,right,left,0,NA,0
294,9,0,9,invalid,left,right,right,1,1.079420099966228,1
294,10,0,10,valid,left,left,left,0,0.5911518998909742,1
294,11,0,11,neutral,none,left,left,0,0.8150479001924396,1
294,12,0,12,valid,right,right,right,1,0.3910476001910866,1
294,13,0,13,valid,right,right,right,1,0.6304742000065744,1
294,14,0,14,valid,right,right,right,1,0.7204756999853998,1
294,15,0,15,valid,right,right,left,0,0.74683530000038445,0
294,16,0,16,valid,right,right,left,0,0.847746100043878,0
294,17,0,17,valid,left,left,left,0,0.7716286000795662,1
294,18,0,18,invalid,left,right,right,1,0.6932962001301348,1
294,19,0,19,valid,right,right,left,0,0.777591299964115,0
294,20,0,20,invalid,right,left,left,0,0.6783922999165952,1
294,21,0,21,neutral,none,right,left,0,0.7002133000642061,0
294,22,0,22,valid,right,right,left,0,0.7016222001984715,0
294,23,0,23,valid,right,right,right,1,0.779682399937883,1
294,24,0,24,valid,right,right,right,1,0.7858009999617934,1
294,25,0,25,valid,left,left,right,1,0.7016812998335809,0
294,26,0,26,neutral,none,right,right,1,0.8335651000961661,1
294,27,0,27,neutral,none,right,right,1,0.6772248998750001,1
294,28,0,28,neutral,none,right,right,1,0.7300751998554915,1
294,29,0,29,valid,left,left,left,0,0.7549143000505865,1
294,30,0,30,neutral,none,left,left,0,1.0218222001567483,1
294,31,0,31,invalid,right,left,right,1,0.6033836000133306,0
294,32,0,32,valid,left,left,left,0,0.5085057998076081,1
294,33,0,33,neutral,none,left,left,0,1.0698875999078157,1
294,34,0,34,neutral,none,left,left,0,0.6122689999174327,1
294,35,0,35,neutral,none,right,right,1,0.7015436000656337,1
294,36,0,36,valid,left,left,left,0,0.521954600000754,1
294,37,0,37,neutral,none,left,left,0,0.7186364999506623,1
294,38,0,38,invalid,right,left,left,0,0.5924044998828322,1
294,39,0,39,neutral,none,left,left,0,0.5332913000602275,1
294,40,0,40,neutral,none,right,right,1,0.9961180000100284,1
294,41,0,41,neutral,none,left,left,0,0.6538772999774665,1
294,42,0,42,neutral,none,right,right,1,0.6826732000336051,1
294,43,0,43,neutral,none,right,left,0,0.9643349999096243,0
294,44,0,44,neutral,none,right,right,1,0.7874616999179125,1
294,45,0,45,neutral,none,left,left,0,0.8337261998094618,1
294,46,0,46,neutral,none,right,right,1,0.7913220000918955,1
294,47,0,47,valid,left,left,left,0,0.6252271998673677,1
294,48,0,48,neutral,none,right,left,0,0.7903612998779863,0
294,49,0,49,valid,right,right,right,1,0.592293799854815,1
294,50,0,50,neutral,none,left,left,0,0.6835692999884486,1
294,51,0,51,valid,left,left,left,0,0.6060513998381793,1
294,52,0,52,neutral,none,left,left,0,0.4867529000621289,1
294,53,0,53,valid,right,right,left,0,0.5236399001441896,0
294,54,0,54,valid,left,left,right,1,0.806451000040397,0
294,55,0,55,invalid,right,left,right,1,0.6526575000025332,0
294,56,0,56,valid,left,left,left,0,0.5411081998609006,1
294,57,0,57,neutral,none,left,left,0,0.9317673998884856,1
294,58,0,58,neutral,none,right,right,1,0.934615100035444,1
294,59,0,59,neutral,none,left,left,0,0.663256200030446,1
294,60,0,60,valid,right,right,right,1,0.4166862000711262,1
294,61,0,61,valid,left,left,left,0,0.8155180001631379,1
294,62,0,62,valid,right,right,left,0,0.5366937001235783,0
294,63,0,63,neutral,none,right,left,0,0.9352078000083566,0
294,64,0,64,valid,left,left,left,0,0.01773279998451471,1
294,65,0,65,invalid,left,right,left,0,0.6087861000560224,0
294,66,0,66,neutral,none,right,right,1,0.8778253002092242,1
294,67,0,67,valid,left,left,left,0,0.7688562998082489,1
294,68,0,68,neutral,none,left,left,0,NA,1
294,69,0,69,neutral,none,right,left,0,0.6598077001981437,0
294,70,0,70,neutral,none,left,left,0,0.45445189997553825,1
294,71,0,71,neutral,none,left,left,0,0.37329330015927553,1
294,72,0,72,neutral,none,left,left,0,0.35322219994850457,1
294,73,0,73,neutral,none,left,right,1,0.42386670014820993,0
294,74,0,74,neutral,none,right,left,0,0.46944839996285737,0
294,75,0,75,neutral,none,left,right,1,0.8065643000882119,0
294,76,0,76,neutral,none,left,right,1,0.5879883000161499,0
294,77,0,77,neutral,none,right,right,1,0.7694125000853091,1
294,78,0,78,valid,right,right,right,1,0.4598917998373509,1
294,79,0,79,neutral,none,right,left,0,0.7880558001343161,0
294,80,1,0,neutral,none,left,left,0,0.7244801998604089,1
294,81,1,1,invalid,left,right,right,1,0.8455793999601156,1
294,82,1,2,neutral,none,right,left,0,0.7875761999748647,0
294,83,1,3,neutral,none,right,right,1,0.6515403999947011,1
294,84,1,4,valid,right,right,right,1,0.5780064999125898,1
294,85,1,5,neutral,none,left,left,0,0.6560311999637634,1
294,86,1,6,valid,right,right,right,1,0.7121230000630021,1
294,87,1,7,valid,left,left,left,0,1.112603000132367,1
294,88,1,8,valid,left,left,left,0,NA,1
294,89,1,9,valid,right,right,right,1,1.111453500110656,1
294,90,1,10,valid,left,left,left,0,0.516364200040698,1
294,91,1,11,valid,left,left,left,0,0.8286896999925375,1
294,92,1,12,neutral,none,right,left,0,NA,0
294,93,1,13,neutral,none,right,left,0,0.5284607000648975,0
294,94,1,14,valid,right,right,right,1,0.49284439999610186,1
294,95,1,15,valid,left,left,left,0,0.7486526998691261,1
294,96,1,16,neutral,none,left,right,1,0.8647761000320315,0
294,97,1,17,valid,left,left,left,0,0.00741710001602768,1
294,98,1,18,neutral,none,right,right,1,0.859047600068152,1
294,99,1,19,neutral,none,right,left,0,1.020287699997425,0
294,100,1,20,invalid,right,left,left,0,1.3015205999836326,1
294,101,1,21,neutral,none,right,right,1,0.7237538998015225,1
294,102,1,22,valid,right,right,right,1,0.8054988000076264,1
294,103,1,23,valid,right,right,right,1,0.5702436999417841,1
294,104,1,24,neutral,none,left,left,0,1.21325709996745,1
294,105,1,25,valid,left,left,right,1,0.6261942000128329,0
294,106,1,26,valid,left,left,left,0,0.7570742999669164,1
294,107,1,27,valid,left,left,left,0,0.4988465998321771,1
294,108,1,28,neutral,none,left,left,0,1.2999098999425769,1
294,109,1,29,neutral,none,right,right,1,0.6480594999156892,1
294,110,1,30,invalid,left,right,left,0,0.5734219001606107,0
294,111,1,31,invalid,right,left,left,0,0.6308594001457095,1
294,112,1,32,valid,left,left,left,0,0.6455834999214858,1
294,113,1,33,neutral,none,right,right,1,1.0402434000279754,1
294,114,1,34,invalid,left,right,left,0,0.8318578000180423,0
294,115,1,35,invalid,right,left,left,0,0.5905688998755068,1
294,116,1,36,neutral,none,left,left,0,0.574395100120455,1
294,117,1,37,neutral,none,left,left,0,0.7188719999976456,1
294,118,1,38,valid,left,left,left,0,0.6753746999893337,1
294,119,1,39,neutral,none,right,right,1,0.6559299000073224,1
294,120,1,40,neutral,none,left,left,0,0.5519281001761556,1
294,121,1,41,neutral,none,left,left,0,0.7168384999968112,1
294,122,1,42,neutral,none,left,left,0,0.740167299984023,1
294,123,1,43,neutral,none,left,left,0,0.5852757000830024,1
294,124,1,44,valid,right,right,left,0,0.660365599906072,0
294,125,1,45,valid,right,right,left,0,0.7435616001021117,0
294,126,1,46,valid,right,right,left,0,0.7440361001063138,0
294,127,1,47,neutral,none,left,left,0,1.0522239999845624,1
294,128,1,48,neutral,none,right,left,0,NA,0
294,129,1,49,valid,right,right,right,1,0.3649301000405103,1
294,130,1,50,neutral,none,right,right,1,0.3646383001469076,1
294,131,1,51,neutral,none,left,right,1,0.6649938998743892,0
294,132,1,52,neutral,none,right,right,1,1.089782499941066,1
294,133,1,53,valid,left,left,right,1,1.1510197001043707,0
294,134,1,54,neutral,none,right,right,1,0.8455539001151919,1
294,135,1,55,valid,right,right,right,1,0.6765604000538588,1
294,136,1,56,neutral,none,right,left,0,0.6386440000496805,0
294,137,1,57,neutral,none,left,right,1,0.43463229993358254,0
294,138,1,58,valid,right,right,right,1,0.5346735999919474,1
294,139,1,59,invalid,left,right,right,1,0.555303999921307,1
294,140,1,60,neutral,none,right,right,1,1.2376765999943018,1
294,141,1,61,valid,left,left,right,1,0.8423244000878185,0
294,142,1,62,neutral,none,left,right,1,1.2900990000925958,0
294,143,1,63,neutral,none,left,left,0,1.2772725999820975,1
294,144,1,64,valid,left,left,right,1,0.8890982999000698,0
294,145,1,65,neutral,none,right,left,0,0.5535873000044376,0
294,146,1,66,valid,right,right,left,0,1.1437153001315892,0
294,147,1,67,neutral,none,left,left,0,0.8883907000999898,1
294,148,1,68,valid,left,left,left,0,0.7858084000181407,1
294,149,1,69,neutral,none,left,left,0,NA,1
294,150,1,70,neutral,none,right,right,1,0.5856416998431087,1
294,151,1,71,valid,right,right,right,1,0.9229139001108706,1
294,152,1,72,invalid,right,left,left,0,0.6575555999297649,1
294,153,1,73,neutral,none,left,left,0,0.7837693002074957,1
294,154,1,74,neutral,none,left,right,1,0.583725200034678,0
294,155,1,75,valid,left,left,left,0,0.4767878002021462,1
294,156,1,76,valid,right,right,right,1,0.7000669999979436,1
294,157,1,77,neutral,none,right,left,0,NA,0
294,158,1,78,neutral,none,right,right,1,0.3817462001461536,1
294,159,1,79,valid,right,right,right,1,1.449544099858031,1
304,0,0,0,valid,left,left,right,1,0.4668226999929175,0
304,1,0,1,neutral,none,right,right,1,0.8568834000034258,1
304,2,0,2,valid,left,left,right,1,0.7876666999654844,0
304,3,0,3,valid,left,left,left,0,0.5870653999736533,1
304,4,0,4,valid,left,left,right,1,0.8278082000324503,0
304,5,0,5,neutral,none,right,right,1,0.8937069999519736,1
304,6,0,6,neutral,none,left,left,0,0.8147457999875769,1
304,7,0,7,valid,right,right,right,1,0.6519859000109136,1
304,8,0,8,neutral,none,left,left,0,0.7519972000736743,1
304,9,0,9,valid,right,right,left,0,0.7689955999376252,0
304,10,0,10,neutral,none,left,right,1,0.5945130999898538,0
304,11,0,11,valid,left,left,left,0,0.6514487999957055,1
304,12,0,12,neutral,none,left,left,0,0.6246928999898955,1
304,13,0,13,valid,right,right,right,1,0.7787925000302494,1
304,14,0,14,neutral,none,right,right,1,0.6486755999503657,1
304,15,0,15,valid,right,right,right,1,0.7300460000988096,1
304,16,0,16,neutral,none,right,right,1,0.8872640000190586,1
304,17,0,17,valid,left,left,left,0,0.812803199980408,1
304,18,0,18,valid,left,left,left,0,0.8345034000230953,1
304,19,0,19,valid,right,right,right,1,0.910335100023076,1
304,20,0,20,neutral,none,right,right,1,0.7612710000248626,1
304,21,0,21,neutral,none,right,right,1,1.050887200050056,1
304,22,0,22,neutral,none,right,right,1,1.285182600026019,1
304,23,0,23,valid,left,left,left,0,1.0518018000293523,1
304,24,0,24,neutral,none,left,left,0,1.3743773999158293,1
304,25,0,25,neutral,none,right,left,0,1.32415019988548,0
304,26,0,26,valid,right,right,right,1,1.035231800051406,1
304,27,0,27,neutral,none,right,right,1,0.8906904000323266,1
304,28,0,28,neutral,none,right,left,0,1.4231659999350086,0
304,29,0,29,neutral,none,right,right,1,0.9472361999796703,1
304,30,0,30,neutral,none,left,right,1,0.9799162000417708,0
304,31,0,31,valid,right,right,right,1,1.1285644000163302,1
304,32,0,32,neutral,none,left,right,1,0.8505305000580847,0
304,33,0,33,valid,left,left,left,0,1.127021600026637,1
304,34,0,34,valid,left,left,left,0,1.2892218000488356,1
304,35,0,35,neutral,none,right,right,1,1.170158699969761,1
304,36,0,36,valid,left,left,left,0,1.3859894999768585,1
304,37,0,37,invalid,left,right,left,0,NA,0
304,38,0,38,invalid,right,left,left,0,1.035407300107181,1
304,39,0,39,valid,right,right,left,0,1.1040099000092596,0
304,40,0,40,neutral,none,left,left,0,1.099191499990411,1
304,41,0,41,neutral,none,left,right,1,1.3271340999053791,0
304,42,0,42,neutral,none,left,left,0,1.3054700000211596,1
304,43,0,43,neutral,none,left,left,0,1.4453003000235185,1
304,44,0,44,neutral,none,left,left,0,1.1811262000119314,1
304,45,0,45,valid,left,left,left,0,1.3295326000079513,1
304,46,0,46,neutral,none,left,right,1,1.0225405000383034,0
304,47,0,47,neutral,none,right,left,0,0.8794365000212565,0
304,48,0,48,valid,right,right,right,1,1.397688600001857,1
304,49,0,49,valid,left,left,left,0,NA,1
304,50,0,50,invalid,right,left,right,1,0.7825194000033662,0
304,51,0,51,neutral,none,right,right,1,1.0036387000000104,1
304,52,0,52,neutral,none,left,right,1,1.4454665000084788,0
304,53,0,53,valid,right,right,right,1,0.8923438000492752,1
304,54,0,54,neutral,none,left,right,1,1.4349033000180498,0
304,55,0,55,valid,right,right,left,0,1.1700671999715269,0
304,56,0,56,neutral,none,left,left,0,1.240427099983208,1
304,57,0,57,valid,left,left,right,1,0.963534599984996,0
304,58,0,58,neutral,none,left,left,0,NA,1
304,59,0,59,neutral,none,left,right,1,1.2631758999777958,0
304,60,0,60,valid,right,right,right,1,0.8876535999588668,1
304,61,0,61,valid,left,left,right,1,1.2987323999404907,0
304,62,0,62,invalid,left,right,left,0,NA,0
304,63,0,63,invalid,left,right,right,1,0.7830294000450522,1
304,64,0,64,valid,right,right,right,1,0.8112961000297219,1
304,65,0,65,neutral,none,left,right,1,1.2138036000542345,0
304,66,0,66,invalid,right,left,right,1,1.1402213999535888,0
304,67,0,67,neutral,none,left,left,0,0.7086020999122411,1
304,68,0,68,invalid,left,right,right,1,1.0513124000281096,1
304,69,0,69,valid,right,right,right,1,0.7345159000251442,1
304,70,0,70,neutral,none,right,right,1,0.9564962000586092,1
304,71,0,71,neutral,none,right,left,0,0.8799935999559239,0
304,72,0,72,valid,left,left,left,0,0.966381400008686,1
304,73,0,73,neutral,none,right,right,1,1.2020737999118865,1
304,74,0,74,neutral,none,right,right,1,0.7236247999826446,1
304,75,0,75,valid,right,right,right,1,0.8865127000026405,1
304,76,0,76,invalid,right,left,right,1,1.149578099953942,0
304,77,0,77,neutral,none,right,right,1,1.1091313000069931,1
304,78,0,78,valid,right,right,right,1,1.355088600073941,1
304,79,0,79,neutral,none,right,left,0,NA,0
304,80,1,0,valid,right,right,right,1,1.373466799966991,1
304,81,1,1,neutral,none,right,left,0,1.4538652000483123,0
304,82,1,2,neutral,none,left,right,1,0.9940653000958264,0
304,83,1,3,valid,right,right,right,1,1.4616423998959365,1
304,84,1,4,neutral,none,right,left,0,1.445756800007075,0
304,85,1,5,valid,left,left,left,0,0.5843035000143573,1
304,86,1,6,invalid,left,right,left,0,1.340871399967,0
304,87,1,7,valid,right,right,right,1,1.073651099926792,1
304,88,1,8,invalid,left,right,left,0,NA,0
304,89,1,9,valid,left,left,left,0,1.057560299988836,1
304,90,1,10,neutral,none,right,right,1,1.2561656999168918,1
304,91,1,11,neutral,none,right,right,1,1.1939652999863029,1
304,92,1,12,valid,left,left,left,0,0.9444296999135986,1
304,93,1,13,valid,right,right,right,1,1.1625870999414474,1
304,94,1,14,valid,right,right,right,1,1.2238719000015408,1
304,95,1,15,neutral,none,left,left,0,0.9987458999967204,1
304,96,1,16,neutral,none,left,left,0,1.3096943000564352,1
304,97,1,17,valid,left,left,right,1,1.4219390000216665,0
304,98,1,18,neutral,none,right,right,1,1.123853199998848,1
304,99,1,19,neutral,none,left,right,1,0.8216779000358656,0
304,100,1,20,neutral,none,right,right,1,0.8697403999976814,1
304,101,1,21,valid,left,left,left,0,1.0593561000423506,1
304,102,1,22,valid,right,right,left,0,NA,0
304,103,1,23,valid,left,left,right,1,1.0465976999839768,0
304,104,1,24,valid,right,right,right,1,0.7934786999830976,1
304,105,1,25,neutral,none,right,right,1,1.0740384999662638,1
304,106,1,26,neutral,none,right,right,1,0.9241603999398648,1
304,107,1,27,neutral,none,left,left,0,0.8578121999744326,1
304,108,1,28,valid,left,left,left,0,0.9031763999955728,1
304,109,1,29,neutral,none,right,right,1,0.7455569000449032,1
304,110,1,30,invalid,right,left,right,1,0.9902297999942676,0
304,111,1,31,neutral,none,right,left,0,1.1468382000457495,0
304,112,1,32,neutral,none,left,left,0,0.7326990000437945,1
304,113,1,33,valid,right,right,right,1,0.5926566000562161,1
304,114,1,34,valid,left,left,left,0,0.908293699962087,1
304,115,1,35,neutral,none,left,left,0,1.0002953000366688,1
304,116,1,36,neutral,none,right,right,1,1.371220500092022,1
304,117,1,37,neutral,none,right,right,1,0.9366529999533668,1
304,118,1,38,neutral,none,left,left,0,1.2832748000510037,1
304,119,1,39,neutral,none,left,left,0,1.1216923999600112,1
304,120,1,40,neutral,none,right,right,1,0.8063295000465587,1
304,121,1,41,neutral,none,right,right,1,0.925707400077954,1
304,122,1,42,neutral,none,right,right,1,1.005825800006278,1
304,123,1,43,invalid,right,left,right,1,1.32984519994352,0
304,124,1,44,valid,left,left,right,1,0.8054157999577001,0
304,125,1,45,valid,right,right,right,1,0.9855353999882936,1
304,126,1,46,valid,left,left,left,0,0.8737834000494331,1
304,127,1,47,invalid,right,left,right,1,1.1778678999980912,0
304,128,1,48,neutral,none,left,right,1,0.9272087999852374,0
304,129,1,49,neutral,none,right,left,0,1.0164005999686196,0
304,130,1,50,neutral,none,left,left,0,1.4110192999942228,1
304,131,1,51,invalid,left,right,left,0,1.3369756999891251,0
304,132,1,52,valid,right,right,right,1,0.6914874999783933,1
304,133,1,53,valid,left,left,left,0,NA,1
304,134,1,54,valid,left,left,left,0,1.175267499987967,1
304,135,1,55,valid,right,right,right,1,0.9734788000350818,1
304,136,1,56,valid,left,left,right,1,1.4367067000130191,0
304,137,1,57,valid,right,right,right,1,1.4245383000234142,1
304,138,1,58,invalid,right,left,left,0,1.135133899981156,1
304,139,1,59,valid,left,left,left,0,1.2130844000494108,1
304,140,1,60,valid,right,right,right,1,1.3604997999500483,1
304,141,1,61,neutral,none,left,left,0,1.0396921000210568,1
304,142,1,62,neutral,none,left,left,0,1.309826000011526,1
304,143,1,63,valid,left,left,right,1,1.4052866999991238,0
304,144,1,64,neutral,none,left,left,0,1.186703900108114,1
304,145,1,65,neutral,none,left,left,0,NA,1
304,146,1,66,neutral,none,right,right,1,1.11484890000429,1
304,147,1,67,neutral,none,left,left,0,0.9438004000112414,1
304,148,1,68,invalid,left,right,left,0,1.2562482999637723,0
304,149,1,69,valid,left,left,left,0,NA,1
304,150,1,70,valid,right,right,right,1,1.1393871000036595,1
304,151,1,71,neutral,none,right,right,1,1.4257284000050277,1
304,152,1,72,neutral,none,left,right,1,1.214243899914436,0
304,153,1,73,neutral,none,left,left,0,1.2710051001049578,1
304,154,1,74,valid,right,right,left,0,1.4237644000677392,0
304,155,1,75,neutral,none,right,right,1,0.9764627000549808,1
304,156,1,76,neutral,none,right,left,0,NA,0
304,157,1,77,neutral,none,left,left,0,1.0325270000612363,1
304,158,1,78,neutral,none,left,left,0,1.0660623000003395,1
304,159,1,79,valid,right,right,right,1,1.2138631000416351,1
258,0,0,0,neutral,none,left,left,0,NA,1
258,1,0,1,neutral,none,right,right,1,0.6038300999789499,1
258,2,0,2,valid,left,left,left,0,1.0719399999943562,1
258,3,0,3,valid,left,left,left,0,0.9297502000117674,1
258,4,0,4,neutral,none,right,right,1,0.7370344999944791,1
258,5,0,5,invalid,right,left,left,0,0.9297531999764032,1
258,6,0,6,invalid,right,left,left,0,0.9063510000123642,1
258,7,0,7,valid,right,right,left,0,NA,0
258,8,0,8,valid,right,right,right,1,0.6370089999982156,1
258,9,0,9,neutral,none,left,left,0,0.6382848999928683,1
258,10,0,10,neutral,none,right,right,1,0.8475113000022247,1
258,11,0,11,valid,right,right,right,1,1.0696395999984816,1
258,12,0,12,neutral,none,left,left,0,0.7828548000543378,1
258,13,0,13,valid,right,right,right,1,1.306469399947673,1
258,14,0,14,invalid,left,right,right,1,1.4277938000159338,1
258,15,0,15,valid,left,left,left,0,0.9645207000430672,1
258,16,0,16,valid,left,left,left,0,0.9728518999763764,1
258,17,0,17,valid,left,left,left,0,0.5752051000017673,1
258,18,0,18,valid,left,left,left,0,0.8057107000495307,1
258,19,0,19,neutral,none,left,left,0,0.590468000038527,1
258,20,0,20,valid,left,left,left,0,1.3047114000073634,1
258,21,0,21,valid,left,left,left,0,0.846476899983827,1
258,22,0,22,valid,left,left,right,1,0.877637900004629,0
258,23,0,23,invalid,left,right,right,1,1.0042915999656543,1
258,24,0,24,neutral,none,left,left,0,1.0921712000272237,1
258,25,0,25,neutral,none,left,left,0,1.2546266000135802,1
258,26,0,26,valid,right,right,right,1,0.5596995999803767,1
258,27,0,27,neutral,none,left,left,0,1.0555131000000983,1
258,28,0,28,neutral,none,right,right,1,0.6537915000226349,1
258,29,0,29,valid,left,left,left,0,1.3558293000096455,1
258,30,0,30,valid,left,left,left,0,0.8625757999834605,1
258,31,0,31,valid,left,left,left,0,0.813538399990648,1
258,32,0,32,valid,right,right,right,1,0.6081867999746464,1
258,33,0,33,neutral,none,left,left,0,0.6049600999685936,1
258,34,0,34,valid,left,left,left,0,0.6013937999960035,1
258,35,0,35,invalid,right,left,left,0,1.062604399980046,1
258,36,0,36,neutral,none,right,right,1,0.6217537999618798,1
258,37,0,37,invalid,right,left,left,0,0.7639833000139333,1
258,38,0,38,neutral,none,right,right,1,0.6576296999701299,1
258,39,0,39,neutral,none,left,left,0,1.076312399993185,1
258,40,0,40,valid,right,right,left,0,NA,0
258,41,0,41,neutral,none,left,right,1,0.6363740999950096,0
258,42,0,42,neutral,none,right,right,1,0.6248727000202052,1
258,43,0,43,invalid,left,right,right,1,1.2355350999860093,1
258,44,0,44,neutral,none,left,left,0,0.96376670000609,1
258,45,0,45,neutral,none,right,right,1,0.6973377999966033,1
258,46,0,46,neutral,none,left,left,0,0.6876815999858081,1
258,47,0,47,neutral,none,left,right,1,0.633214199973736,0
258,48,0,48,valid,right,right,right,1,0.6125297000398859,1
258,49,0,49,neutral,none,left,left,0,1.0561007000505924,1
258,50,0,50,neutral,none,right,right,1,0.6002174000022933,1
258,51,0,51,valid,right,right,right,1,0.549415199959185,1
258,52,0,52,neutral,none,right,right,1,0.5801489999867044,1
258,53,0,53,neutral,none,right,right,1,0.6635404999833554,1
258,54,0,54,invalid,left,right,right,1,0.6405159999849275,1
258,55,0,55,valid,right,right,right,1,0.5668751000193879,1
258,56,0,56,valid,right,right,right,1,0.8248895999859087,1
258,57,0,57,valid,right,right,right,1,0.5695158000453375,1
258,58,0,58,valid,right,right,right,1,0.6910031999577768,1
258,59,0,59,neutral,none,right,right,1,0.49013879999984056,1
258,60,0,60,valid,left,left,left,0,0.6199322000029497,1
258,61,0,61,neutral,none,right,right,1,1.0153770000324585,1
258,62,0,62,neutral,none,left,right,1,0.615236499987077,0
258,63,0,63,neutral,none,right,right,1,0.7080977999721654,1
258,64,0,64,neutral,none,right,left,0,1.2236385999713093,0
258,65,0,65,valid,right,right,right,1,0.32311789999948815,1
258,66,0,66,neutral,none,left,left,0,0.8318900000303984,1
258,67,0,67,neutral,none,left,left,0,0.5297827000031248,1
258,68,0,68,valid,right,right,right,1,0.5541171999648213,1
258,69,0,69,neutral,none,right,right,1,0.6157534999656491,1
258,70,0,70,valid,left,left,left,0,0.8728304000105709,1
258,71,0,71,neutral,none,right,left,0,1.2035265999729745,0
258,72,0,72,neutral,none,right,right,1,0.5001498999772593,1
258,73,0,73,valid,left,left,right,1,0.6257183999987319,0
258,74,0,74,neutral,none,right,right,1,0.7228860000032,1
258,75,0,75,neutral,none,right,right,1,0.5759891999769025,1
258,76,0,76,valid,right,right,right,1,0.9201882999623194,1
258,77,0,77,neutral,none,left,left,0,0.6337624000152573,1
258,78,0,78,neutral,none,left,right,1,0.6387407000293024,0
258,79,0,79,neutral,none,left,left,0,0.8451586000155658,1
258,80,1,0,neutral,none,right,right,1,1.0383581000496631,1
258,81,1,1,valid,left,left,left,0,0.762271800020244,1
258,82,1,2,neutral,none,left,right,1,1.2458640999975614,0
258,83,1,3,valid,right,right,right,1,0.8263516000006348,1
258,84,1,4,neutral,none,left,left,0,0.7669414000120014,1
258,85,1,5,valid,left,left,left,0,0.7345770000247285,1
258,86,1,6,valid,left,left,left,0,0.8527143999817781,1
258,87,1,7,neutral,none,right,right,1,0.6372473000083119,1
258,88,1,8,neutral,none,right,right,1,0.7863475999911316,1
258,89,1,9,valid,right,right,right,1,0.5280643000151031,1
258,90,1,10,valid,left,left,left,0,1.236963600036688,1
258,91,1,11,neutral,none,right,left,0,0.6478389000403695,0
258,92,1,12,valid,left,left,left,0,0.9413866000249982,1
258,93,1,13,neutral,none,left,left,0,0.5357187000336125,1
258,94,1,14,valid,right,right,right,1,0.6982124999631196,1
258,95,1,15,neutral,none,left,left,0,0.5876792999915779,1
258,96,1,16,neutral,none,right,right,1,0.7188128000125289,1
258,97,1,17,neutral,none,right,right,1,1.0202407999895513,1
258,98,1,18,neutral,none,left,right,1,0.6020829000044614,0
258,99,1,19,invalid,right,left,left,0,0.6380496000056155,1
258,100,1,20,neutral,none,left,left,0,0.9113060000236146,1
258,101,1,21,valid,right,right,right,1,0.6164816000382416,1
258,102,1,22,valid,left,left,left,0,0.8115760000073351,1
258,103,1,23,invalid,right,left,left,0,0.5302508000168018,1
258,104,1,24,neutral,none,right,left,0,1.0765995999681763,0
258,105,1,25,invalid,left,right,right,1,0.7963897000299767,1
258,106,1,26,valid,right,right,right,1,0.5189621999743395,1
258,107,1,27,neutral,none,left,left,0,0.7928564000176266,1
258,108,1,28,neutral,none,left,left,0,1.2490334000322036,1
258,109,1,29,neutral,none,left,left,0,0.8321279999800026,1
258,110,1,30,neutral,none,right,left,0,0.8499551999848336,0
258,111,1,31,neutral,none,right,right,1,0.8507820999948308,1
258,112,1,32,invalid,left,right,left,0,0.6993068000301719,0
258,113,1,33,neutral,none,right,left,0,0.84924220002722,0
258,114,1,34,valid,right,right,right,1,1.0240102999960072,1
258,115,1,35,neutral,none,right,right,1,0.8851176999742165,1
258,116,1,36,valid,right,right,right,1,1.163112899987027,1
258,117,1,37,valid,left,left,left,0,0.8783661000197753,1
258,118,1,38,valid,left,left,right,1,0.631235699984245,0
258,119,1,39,valid,left,left,right,1,0.8392268000170588,0
258,120,1,40,valid,right,right,right,1,1.4030058000353165,1
258,121,1,41,neutral,none,left,left,0,1.0529757000040263,1
258,122,1,42,neutral,none,right,right,1,0.5762984000029974,1
258,123,1,43,neutral,none,right,right,1,0.5852627999847755,1
