"id","trial","direction","condition","corrAns","resp","corr","rt"
"sub-007",1,"right","speed","right","right",1,0.653702184004942
"sub-007",2,"left","speed","left","right",0,0.582185796985868
"sub-007",3,"left","speed","left","left",1,1.38683706297888
"sub-007",4,"right","speed","right","right",1,0.955037053994602
"sub-007",5,"left","speed","left","right",0,0.499012704996858
"sub-007",6,"right","speed","right","left",0,0.692695937003009
"sub-007",7,"left","speed","left","left",1,1.49113630902139
"sub-007",8,"right","speed","right","right",1,1.04961009102408
"sub-007",9,"left","speed","left","right",0,0.690777653013356
"sub-007",10,"right","speed","right","left",0,0.793062126002042
"sub-007",11,"right","speed","right","left",0,0.826860981993377
"sub-007",12,"left","speed","left","left",1,0.645988468982978
"sub-007",13,"right","speed","right","right",1,0.633164692000719
"sub-007",14,"left","speed","left","left",1,2.01240973698441
"sub-007",15,"right","speed","right","right",1,1.5446416180057
"sub-007",16,"left","speed","left","left",1,0.66791764300433
"sub-007",17,"left","speed","left","right",0,0.49759398799506
"sub-007",18,"right","speed","right","left",0,0.651215924997814
"sub-007",19,"left","speed","left","left",1,0.54309178199037
"sub-007",20,"right","speed","right","right",1,0.556620155985001
"sub-007",21,"left","speed","left","left",1,0.482719046995044
"sub-007",22,"right","speed","right","left",0,0.866801256983308
"sub-007",23,"right","speed","right","right",1,0.734800724982051
"sub-007",24,"left","speed","left","left",1,0.981428858009167
"sub-007",25,"right","speed","right","left",0,3.01500572101213
"sub-007",26,"left","speed","left","right",0,0.5192105419992
"sub-007",27,"left","speed","left","left",1,0.684477825998329
"sub-007",28,"right","speed","right","right",1,0.592772817995865
"sub-007",29,"left","speed","left","left",1,0.540998706012033
"sub-007",30,"right","speed","right","right",1,1.14444608500344
"sub-007",31,"left","speed","left","right",0,1.1182322090026
"sub-007",32,"right","speed","right","right",1,1.25441913600662
"sub-007",33,"right","speed","right","right",1,1.00140825900598
"sub-007",34,"left","speed","left","left",1,0.597766877006507
"sub-007",35,"right","speed","right","right",1,2.47431287300424
"sub-007",36,"left","speed","left","left",1,0.642220592009835
"sub-007",37,"left","speed","left","left",1,0.921200895012589
"sub-007",38,"right","speed","right","right",1,0.727403121010866
"sub-007",39,"left","speed","left","left",1,0.811052367003867
"sub-007",40,"right","speed","right","right",1,1.22109574198839
"sub-007",41,"right","speed","right","left",0,2.2658919460082
"sub-007",42,"left","speed","left","right",0,0.868154410010902
"sub-007",43,"left","speed","left","right",0,0.808670188009273
"sub-007",44,"right","speed","right","right",1,1.11031086900039
"sub-007",45,"left","speed","left","left",1,0.531891815015115
"sub-007",46,"right","speed","right","left",0,0.699613907985622
"sub-007",47,"left","speed","left","right",0,0.614715497998986
"sub-007",48,"right","speed","right","right",1,0.805975010007387
"sub-007",49,"right","speed","right","left",0,0.533303417993011
"sub-007",50,"left","speed","left","left",1,0.713745629996993
"sub-007",51,"left","speed","left","left",1,1.37226241998724
"sub-007",52,"right","speed","right","left",0,1.08692457800498
"sub-007",53,"left","speed","left","right",0,0.723483267996926
"sub-007",54,"right","speed","right","right",1,1.45105308300117
"sub-007",55,"left","speed","left","left",1,0.678455851011677
"sub-007",56,"right","speed","right","right",1,0.847352090000641
"sub-007",57,"left","speed","left","left",1,0.727591281989589
"sub-007",58,"right","speed","right","right",1,0.669435082003474
"sub-007",59,"left","speed","left","left",1,0.700507939007366
"sub-007",60,"right","speed","right","right",1,1.62527110398514
"sub-007",1,"left","accuracy","left","left",1,3.20253832699382
"sub-007",2,"right","accuracy","right","right",1,2.42907254400779
"sub-007",3,"left","accuracy","left","left",1,2.3741522480268
"sub-007",4,"right","accuracy","right","right",1,0.903776857012417
"sub-007",5,"left","accuracy","left","left",1,1.60178874499979
"sub-007",6,"right","accuracy","right","right",1,1.05315075500403
"sub-007",7,"right","accuracy","right","right",1,0.59169536299305
"sub-007",8,"left","accuracy","left","right",0,0.688827202015091
"sub-007",9,"left","accuracy","left","right",0,1.11094832100207
"sub-007",10,"right","accuracy","right","left",0,2.46708198799752
"sub-007",11,"left","accuracy","left","left",1,1.12236899699201
"sub-007",12,"right","accuracy","right","right",1,2.17497823099256
"sub-007",13,"left","accuracy","left","left",1,0.760700985003496
"sub-007",14,"right","accuracy","right","right",1,0.464549559022998
"sub-007",15,"right","accuracy","right","left",0,0.528865086991573
"sub-007",16,"left","accuracy","left","right",0,0.745174764015246
"sub-007",17,"left","accuracy","left","right",0,0.80906327298726
"sub-007",18,"right","accuracy","right","right",1,0.783103879977716
"sub-007",19,"left","accuracy","left","left",1,0.828258284978801
"sub-007",20,"right","accuracy","right","right",1,1.16931571799796
"sub-007",21,"right","accuracy","right","right",1,0.778790004987968
"sub-007",22,"left","accuracy","left","left",1,0.635593277023872
"sub-007",23,"right","accuracy","right","left",0,0.778476703009801
"sub-007",24,"left","accuracy","left","right",0,0.752165522018913
"sub-007",25,"right","accuracy","right","right",1,1.08179215699784
"sub-007",26,"left","accuracy","left","left",1,0.728927620017203
"sub-007",27,"left","accuracy","left","right",0,0.641003390977858
"sub-007",28,"right","accuracy","right","right",1,1.388255672995
"sub-007",29,"right","accuracy","right","right",1,2.89718109698151
"sub-007",30,"left","accuracy","left","left",1,0.72191637699143
"sub-007",31,"left","accuracy","left","left",1,1.93180503000622
"sub-007",32,"right","accuracy","right","right",1,0.760115130018676
"sub-007",33,"right","accuracy","right","right",1,1.11376074401778
"sub-007",34,"left","accuracy","left","left",1,0.998034304997418
"sub-007",35,"left","accuracy","left","left",1,1.0802933749801
"sub-007",36,"right","accuracy","right","left",0,0.665120858990122
"sub-007",37,"right","accuracy","right","left",0,0.918276794982376
"sub-007",38,"left","accuracy","left","right",0,0.736897949012928
"sub-007",39,"right","accuracy","right","left",0,0.660746515000938
"sub-007",40,"left","accuracy","left","left",1,0.77087768597994
"sub-007",41,"right","accuracy","right","right",1,0.644622527994215
"sub-007",42,"left","accuracy","left","left",1,0.698425273993053
"sub-007",43,"right","accuracy","right","left",0,1.26995168300346
"sub-007",44,"left","accuracy","left","left",1,0.754795821994776
"sub-007",45,"right","accuracy","right","right",1,0.814657156006433
"sub-007",46,"left","accuracy","left","left",1,0.7368469699868
"sub-007",47,"right","accuracy","right","right",1,0.691123775002779
"sub-007",48,"left","accuracy","left","left",1,1.50093916399055
"sub-007",49,"left","accuracy","left","left",1,1.39507090800907
"sub-007",50,"right","accuracy","right","left",0,0.931093757011695
"sub-007",51,"right","accuracy","right","right",1,1.28802526497748
"sub-007",52,"left","accuracy","left","right",0,1.81951521898736
"sub-007",53,"left","accuracy","left","right",0,1.44935832801275
"sub-007",54,"right","accuracy","right","left",0,1.43031167201116
"sub-007",55,"right","accuracy","right","right",1,3.6393063889991
"sub-007",56,"left","accuracy","left","left",1,1.34494954900583
"sub-007",57,"left","accuracy","left","left",1,1.15890724898782
"sub-007",58,"right","accuracy","right","right",1,0.988665112003218
"sub-007",59,"right","accuracy","right","left",0,3.96716987699619
"sub-007",60,"left","accuracy","left","left",1,1.55518705901341
"sub-010",1,"left","accuracy","left","left",1,1.15697604099842
"sub-010",2,"right","accuracy","right","right",1,0.577911207998113
"sub-010",3,"right","accuracy","right","right",1,0.75199249999423
"sub-010",4,"left","accuracy","left","left",1,0.623700000003737
"sub-010",5,"left","accuracy","left","left",1,1.14161991699802
"sub-010",6,"right","accuracy","right","right",1,0.577419416993507
"sub-010",7,"right","accuracy","right","right",1,2.61629312500008
"sub-010",8,"left","accuracy","left","left",1,0.687952249994851
"sub-010",9,"right","accuracy","right","right",1,0.658871125000587
"sub-010",10,"left","accuracy","left","left",1,0.646577666004305
"sub-010",11,"left","accuracy","left","left",1,1.85639645800256
"sub-010",12,"right","accuracy","right","right",1,0.667708084001788
"sub-010",13,"right","accuracy","right","right",1,1.35109195800032
"sub-010",14,"left","accuracy","left","left",1,1.41691333299968
"sub-010",15,"left","accuracy","left","left",1,1.04523137499928
"sub-010",16,"right","accuracy","right","right",1,0.684013457997935
"sub-010",17,"right","accuracy","right","right",1,1.56391870899824
"sub-010",18,"left","accuracy","left","left",1,0.695726291000028
"sub-010",19,"right","accuracy","right","right",1,1.57907429100305
"sub-010",20,"left","accuracy","left","left",1,0.715864541998599
"sub-010",21,"right","accuracy","right","right",1,1.53490845899796
"sub-010",22,"left","accuracy","left","left",1,0.816695041998173
"sub-010",23,"left","accuracy","left","left",1,0.71694587499951
"sub-010",24,"right","accuracy","right","right",1,1.04080683299981
"sub-010",25,"right","accuracy","right","right",1,1.61053350000293
"sub-010",26,"left","accuracy","left","left",1,0.685439749999205
"sub-010",27,"left","accuracy","left","left",1,1.64150120900013
"sub-010",28,"right","accuracy","right","right",1,0.667966333006916
"sub-010",29,"left","accuracy","left","left",1,0.775783334000153
"sub-010",30,"right","accuracy","right","right",1,0.709403166001721
"sub-010",31,"right","accuracy","right","right",1,1.09159758299938
"sub-010",32,"left","accuracy","left","left",1,0.601010749996931
"sub-010",33,"right","accuracy","right","right",1,0.666351167004905
"sub-010",34,"left","accuracy","left","left",1,0.699671334004961
"sub-010",35,"right","accuracy","right","right",1,1.33515629199974
"sub-010",36,"left","accuracy","left","left",1,0.620285584001977
"sub-010",37,"right","accuracy","right","right",1,0.720052208002016
"sub-010",38,"left","accuracy","left","left",1,0.729678625000815
"sub-010",39,"left","accuracy","left","left",1,1.76673412499804
"sub-010",40,"right","accuracy","right","right",1,1.4146093330055
"sub-010",41,"left","accuracy","left","left",1,1.14310645800288
"sub-010",42,"right","accuracy","right","right",1,0.806194832999608
"sub-010",43,"right","accuracy","right","right",1,1.50698795900098
"sub-010",44,"left","accuracy","left","left",1,0.857460708000872
"sub-010",45,"right","accuracy","right","right",1,0.815706916000636
"sub-010",46,"left","accuracy","left","left",1,0.690279082999041
"sub-010",47,"right","accuracy","right","right",1,1.16713887500373
"sub-010",48,"left","accuracy","left","left",1,0.691325583000435
"sub-010",49,"right","accuracy","right","right",1,1.41488775000471
"sub-010",50,"left","accuracy","left","left",1,0.869585292006377
"sub-010",51,"right","accuracy","right","right",1,1.3163062080057
"sub-010",52,"left","accuracy","left","left",1,0.580214249996061
"sub-010",53,"left","accuracy","left","left",1,0.778588041001058
"sub-010",54,"right","accuracy","right","right",1,0.770810624999285
"sub-010",55,"left","accuracy","left","left",1,1.19083420899551
"sub-010",56,"right","accuracy","right","right",1,0.71735500000068
"sub-010",57,"right","accuracy","right","right",1,1.33307804099604
"sub-010",58,"left","accuracy","left","left",1,1.16128929200204
"sub-010",59,"right","accuracy","right","right",1,1.00313358400308
"sub-010",60,"left","accuracy","left","left",1,1.08353841699864
"sub-010",1,"left","speed","left","left",1,0.648995374998776
"sub-010",2,"right","speed","right","right",1,0.573302458004036
"sub-010",3,"left","speed","left","left",1,0.58302654200088
"sub-010",4,"right","speed","right","right",1,0.616665165995073
"sub-010",5,"left","speed","left","left",1,0.658454749995144
"sub-010",6,"right","speed","right","right",1,0.559519832997466
"sub-010",7,"left","speed","left","left",1,0.513173958002881
"sub-010",8,"right","speed","right","right",1,0.809916332997091
"sub-010",9,"left","speed","left","left",1,0.545942749995447
"sub-010",10,"right","speed","right","right",1,0.608565665999777
"sub-010",11,"left","speed","left","left",1,0.623576457997842
"sub-010",12,"right","speed","right","right",1,0.646297833001881
"sub-010",13,"right","speed","right","right",1,0.72472379199462
"sub-010",14,"left","speed","left","left",1,0.567857750000258
"sub-010",15,"right","speed","right","right",1,0.72375791700324
"sub-010",16,"left","speed","left","left",1,0.807846458003041
"sub-010",17,"left","speed","left","left",1,0.497307290999743
"sub-010",18,"right","speed","right","right",1,0.568700165997143
"sub-010",19,"left","speed","left","left",1,0.606313875003252
"sub-010",20,"right","speed","right","right",1,0.767054167001334
"sub-010",21,"left","speed","left","left",1,0.499691541001084
"sub-010",22,"right","speed","right","right",1,0.588943458002177
"sub-010",23,"left","speed","left","left",1,0.466874625002674
"sub-010",24,"right","speed","right","right",1,0.852563832995656
"sub-010",25,"right","speed","right","right",1,0.617034167000384
"sub-010",26,"left","speed","left","left",1,0.482602291005605
"sub-010",27,"right","speed","right","right",1,0.536699457996292
"sub-010",28,"left","speed","left","left",1,0.420480249995307
"sub-010",29,"right","speed","right","right",1,0.601165834006679
"sub-010",30,"left","speed","left","left",1,0.612523582996801
"sub-010",31,"left","speed","left","left",1,0.657188791999943
"sub-010",32,"right","speed","right","right",1,0.772390125006496
"sub-010",33,"right","speed","right","right",1,0.811103625004762
"sub-010",34,"left","speed","left","left",1,0.507055834001221
"sub-010",35,"left","speed","left","left",1,0.6172059169985
"sub-010",36,"right","speed","right","right",1,1.00401237500046
"sub-010",37,"left","speed","left","left",1,0.774426333999145
"sub-010",38,"right","speed","right","right",1,0.573630665996461
"sub-010",39,"left","speed","left","left",1,1.07431395899766
"sub-010",40,"right","speed","right","right",1,0.623920874997566
"sub-010",41,"left","speed","left","left",1,0.593138416996226
"sub-010",42,"right","speed","right","right",1,0.61329066700273
"sub-010",43,"left","speed","left","left",1,0.499979375003022
"sub-010",44,"right","speed","right","right",1,0.916171290999046
"sub-010",45,"right","speed","right","right",1,0.647794541997428
"sub-010",46,"left","speed","left","left",1,0.565873209001438
"sub-010",47,"left","speed","left","left",1,0.925501708006777
"sub-010",48,"right","speed","right","right",1,0.473701750001055
"sub-010",49,"right","speed","right","right",1,0.573351166000066
"sub-010",50,"left","speed","left","left",1,0.506489457999123
"sub-010",51,"right","speed","right","right",1,0.642087958003685
"sub-010",52,"left","speed","left","left",1,0.470533250001608
"sub-010",53,"right","speed","right","right",1,0.626295957998082
"sub-010",54,"left","speed","left","left",1,0.533165958993777
"sub-010",55,"left","speed","left","left",1,0.580652374999772
"sub-010",56,"right","speed","right","right",1,0.696102624999185
"sub-010",57,"right","speed","right","right",1,0.742802708999079
"sub-010",58,"left","speed","left","left",1,0.538593333003519
"sub-010",59,"right","speed","right","right",1,0.662001958000474
"sub-010",60,"left","speed","left","left",1,0.635729374997027
"sub-011",1,"right","accuracy","right","right",1,1.3711006659978
"sub-011",2,"left","accuracy","left","left",1,2.65922583299835
"sub-011",3,"right","accuracy","right","right",1,2.53305954100142
"sub-011",4,"left","accuracy","left","left",1,0.43567987500137
"sub-011",5,"left","accuracy","left","right",0,3.79218750000291
"sub-011",6,"right","accuracy","right","left",0,2.97114808400147
"sub-011",7,"right","accuracy","right","right",1,1.04203004200099
"sub-011",8,"left","accuracy","left","left",1,0.826878542000486
"sub-011",9,"right","accuracy","right","right",1,0.692102542001521
"sub-011",10,"left","accuracy","left","left",1,0.576209584000026
"sub-011",11,"left","accuracy","left","right",0,2.90719854199779
"sub-011",12,"right","accuracy","right","right",1,1.73504366699854
"sub-011",13,"left","accuracy","left","left",1,0.611740500000451
"sub-011",14,"right","accuracy","right","right",1,0.740314165999735
"sub-011",15,"left","accuracy","left","left",1,0.64394404199993
"sub-011",16,"right","accuracy","right","right",1,0.610294707999856
"sub-011",17,"left","accuracy","left","left",1,0.623682833000203
"sub-011",18,"right","accuracy","right","right",1,0.545311334000871
"sub-011",19,"left","accuracy","left","left",1,0.475175999999919
"sub-011",20,"right","accuracy","right","right",1,0.479390832999343
"sub-011",21,"right","accuracy","right","right",1,0.534500999998272
"sub-011",22,"left","accuracy","left","left",1,0.472077791000629
"sub-011",23,"left","accuracy","left","left",1,0.640542917000857
"sub-011",24,"right","accuracy","right","right",1,0.757618332998391
"sub-011",25,"right","accuracy","right","right",1,2.15178779100097
"sub-011",26,"left","accuracy","left","left",1,0.541575082999771
"sub-011",27,"right","accuracy","right","right",1,0.582432166000217
"sub-011",28,"left","accuracy","left","left",1,0.462194499999896
"sub-011",29,"right","accuracy","right","right",1,0.500882917000126
"sub-011",30,"left","accuracy","left","right",0,2.88795779200154
"sub-011",31,"right","accuracy","right","right",1,1.37019566599702
"sub-011",32,"left","accuracy","left","left",1,0.457152041999507
"sub-011",33,"left","accuracy","left","left",1,1.27537187500275
"sub-011",34,"right","accuracy","right","right",1,2.21373333300289
"sub-011",35,"right","accuracy","right","right",1,2.16906645800191
"sub-011",36,"left","accuracy","left","left",1,1.8140035840006
"sub-011",37,"right","accuracy","right","right",1,0.877717667000979
"sub-011",38,"left","accuracy","left","left",1,1.21732308300125
"sub-011",39,"left","accuracy","left","right",0,2.90205662500011
"sub-011",40,"right","accuracy","right","right",1,1.99452945799931
"sub-011",41,"left","accuracy","left","left",1,1.46132524999848
"sub-011",42,"right","accuracy","right","right",1,0.907547291997616
"sub-011",43,"right","accuracy","right","right",1,0.918657707999955
"sub-011",44,"left","accuracy","left","left",1,0.781932709000102
"sub-011",45,"right","accuracy","right","right",1,0.880730959001085
"sub-011",46,"left","accuracy","left","left",1,0.789697708001768
"sub-011",47,"right","accuracy","right","right",1,0.786338624999189
"sub-011",48,"left","accuracy","left","left",1,0.784676415998547
"sub-011",49,"left","accuracy","left","left",1,2.02975333300128
"sub-011",50,"right","accuracy","right","right",1,2.44093995900039
"sub-011",51,"left","accuracy","left","left",1,0.751202082999953
"sub-011",52,"right","accuracy","right","right",1,0.860062165997078
"sub-011",53,"left","accuracy","left","left",1,0.938051165998331
"sub-011",54,"right","accuracy","right","right",1,0.705323124999268
"sub-011",55,"right","accuracy","right","right",1,1.75756683300278
"sub-011",56,"left","accuracy","left","left",1,0.91901295900243
"sub-011",57,"right","accuracy","right","right",1,1.38995500000237
"sub-011",58,"left","accuracy","left","left",1,1.42441233300269
"sub-011",59,"right","accuracy","right","right",1,2.95081645800019
"sub-011",60,"left","accuracy","left","left",1,1.20246070800204
"sub-011",1,"right","speed","right","right",1,0.469695916999626
"sub-011",2,"left","speed","left","left",1,0.352859875001741
"sub-011",3,"left","speed","left","left",1,0.528550458002428
"sub-011",4,"right","speed","right","right",1,0.50824854199891
"sub-011",5,"right","speed","right","left",0,0.624127750001207
"sub-011",6,"left","speed","left","left",1,0.491351792003115
"sub-011",7,"right","speed","right","right",1,0.501433749999705
"sub-011",8,"left","speed","left","left",1,0.459383708999667
"sub-011",9,"right","speed","right","right",1,0.490387708003254
"sub-011",10,"left","speed","left","left",1,0.434907750001003
"sub-011",11,"left","speed","left","right",0,0.30804579100004
"sub-011",12,"right","speed","right","right",1,0.435533750001923
"sub-011",13,"right","speed","right","right",1,0.527454582999781
"sub-011",14,"left","speed","left","left",1,0.413426208000601
"sub-011",15,"left","speed","left","left",1,0.376371708000079
"sub-011",16,"right","speed","right","right",1,0.463100667002436
"sub-011",17,"left","speed","left","left",1,0.418734915998357
"sub-011",18,"right","speed","right","right",1,0.420779916999891
"sub-011",19,"left","speed","left","left",1,0.494152374998521
"sub-011",20,"right","speed","right","right",1,0.793473916997755
"sub-011",21,"left","speed","left","left",1,0.919515665998915
"sub-011",22,"right","speed","right","right",1,0.505284417002258
"sub-011",23,"right","speed","right","right",1,1.22181116600041
"sub-011",24,"left","speed","left","right",0,0.532894416002819
"sub-011",25,"left","speed","left","left",1,0.449628125003073
"sub-011",26,"right","speed","right","right",1,0.537039209000795
"sub-011",27,"left","speed","left","left",1,0.767150958999991
"sub-011",28,"right","speed","right","right",1,0.440080000000307
"sub-011",29,"left","speed","left","right",0,0.873698750001495
"sub-011",30,"right","speed","right","right",1,0.582375207999576
"sub-011",31,"left","speed","left","left",1,0.562505334000889
"sub-011",32,"right","speed","right","right",1,0.559898625000642
"sub-011",33,"left","speed","left","left",1,0.456136250002601
"sub-011",34,"right","speed","right","right",1,0.392129791998741
"sub-011",35,"right","speed","right","right",1,0.475797708997561
"sub-011",36,"left","speed","left","left",1,1.6142034580007
"sub-011",37,"left","speed","left","left",1,0.882355333000305
"sub-011",38,"right","speed","right","right",1,0.528686665998976
"sub-011",39,"left","speed","left","left",1,0.301848625000275
"sub-011",40,"right","speed","right","right",1,0.416106542001216
"sub-011",41,"right","speed","right","right",1,0.607003500001156
"sub-011",42,"left","speed","left","left",1,0.452395834003255
"sub-011",43,"right","speed","right","right",1,0.410857333001331
"sub-011",44,"left","speed","left","left",1,0.405848291000439
"sub-011",45,"right","speed","right","right",1,0.508302166999783
"sub-011",46,"left","speed","left","left",1,0.428649959001632
"sub-011",47,"left","speed","left","left",1,0.51502920799976
"sub-011",48,"right","speed","right","right",1,0.523523708001449
"sub-011",49,"left","speed","left","left",1,0.390188875000604
"sub-011",50,"right","speed","right","right",1,0.40590924999924
"sub-011",51,"left","speed","left","left",1,0.395109207998757
"sub-011",52,"right","speed","right","right",1,0.43990174999999
"sub-011",53,"right","speed","right","right",1,0.406401083000674
"sub-011",54,"left","speed","left","left",1,0.346774666999409
"sub-011",55,"right","speed","right","right",1,0.442779790999339
"sub-011",56,"left","speed","left","right",0,0.983944041003269
"sub-011",57,"right","speed","right","left",0,0.348160083998664
"sub-011",58,"left","speed","left","left",1,0.609213167001144
"sub-011",59,"left","speed","left","left",1,0.535109708998789
"sub-011",60,"right","speed","right","right",1,0.411681292000139
"sub-012",1,"right","speed","right","right",1,1.48891645800904
"sub-012",2,"left","speed","left","left",1,0.532754750005552
"sub-012",3,"left","speed","left","left",1,0.659380249999231
"sub-012",4,"right","speed","right","right",1,1.14081395800167
"sub-012",5,"left","speed","left","left",1,1.11800149999908
"sub-012",6,"right","speed","right","left",0,0.941995791989029
"sub-012",7,"right","speed","right","right",1,1.10224395799742
"sub-012",8,"left","speed","left","left",1,0.607289457999286
"sub-012",9,"right","speed","right","right",1,0.654044875002
"sub-012",10,"left","speed","left","left",1,0.846845416992437
"sub-012",11,"right","speed","right","right",1,0.722966666013235
"sub-012",12,"left","speed","left","left",1,0.499533459005761
"sub-012",13,"right","speed","right","right",1,0.512025582997012
"sub-012",14,"left","speed","left","left",1,0.54635629200493
"sub-012",15,"right","speed","right","right",1,0.500116292008897
"sub-012",16,"left","speed","left","left",1,0.539065290999133
"sub-012",17,"right","speed","right","right",1,0.42884433400468
"sub-012",18,"left","speed","left","left",1,0.506799208000302
"sub-012",19,"right","speed","right","right",1,0.590747666996322
"sub-012",20,"left","speed","left","left",1,0.530163667004672
"sub-012",21,"right","speed","right","right",1,0.735343708001892
"sub-012",22,"left","speed","left","left",1,0.431121708999854
"sub-012",23,"left","speed","left","left",1,0.540321583001059
"sub-012",24,"right","speed","right","right",1,0.383370541996555
"sub-012",25,"right","speed","right","right",1,0.755783250002423
"sub-012",26,"left","speed","left","left",1,0.390238292005961
"sub-012",27,"right","speed","right","right",1,0.466916207995382
"sub-012",28,"left","speed","left","left",1,0.366247375000967
"sub-012",29,"right","speed","right","right",1,0.409555790989543
"sub-012",30,"left","speed","left","left",1,0.484815666000941
"sub-012",31,"left","speed","left","left",1,0.67293441700167
"sub-012",32,"right","speed","right","right",1,0.372156583005562
"sub-012",33,"right","speed","right","right",1,0.796263417010778
"sub-012",34,"left","speed","left","left",1,0.406928875003359
"sub-012",35,"left","speed","left","left",1,0.890164333002758
"sub-012",36,"right","speed","right","right",1,0.52633095899364
"sub-012",37,"right","speed","right","right",1,0.489448874999653
"sub-012",38,"left","speed","left","left",1,0.399846750005963
"sub-012",39,"right","speed","right","right",1,0.564988833008101
"sub-012",40,"left","speed","left","left",1,0.56846266699722
"sub-012",41,"right","speed","right","right",1,0.629196916997898
"sub-012",42,"left","speed","left","left",1,0.388631750000059
"sub-012",43,"left","speed","left","left",1,0.830662166001275
"sub-012",44,"right","speed","right","right",1,0.767260084001464
"sub-012",45,"right","speed","right","right",1,0.725176040999941
"sub-012",46,"left","speed","left","left",1,0.464643416999024
"sub-012",47,"right","speed","right","right",1,0.486711290999665
"sub-012",48,"left","speed","left","left",1,0.856056499993429
"sub-012",49,"left","speed","left","left",1,0.973316457995679
"sub-012",50,"right","speed","right","right",1,1.62767254200298
"sub-012",51,"right","speed","right","right",1,1.86757858400233
"sub-012",52,"left","speed","left","left",1,0.46069529200031
"sub-012",53,"right","speed","right","right",1,0.51240287499968
"sub-012",54,"left","speed","left","left",1,0.513235291000456
"sub-012",55,"right","speed","right","right",1,0.453127208995284
"sub-012",56,"left","speed","left","left",1,0.489347499998985
"sub-012",57,"right","speed","right","right",1,0.490987040990149
"sub-012",58,"left","speed","left","left",1,0.478575540997554
"sub-012",59,"right","speed","right","right",1,0.482856125003309
"sub-012",60,"left","speed","left","left",1,0.398133750000852
"sub-012",1,"left","accuracy","left","left",1,2.44092533299408
"sub-012",2,"right","accuracy","right","right",1,0.492642167009762
"sub-012",3,"right","accuracy","right","left",0,0.467672083002981
"sub-012",4,"left","accuracy","left","left",1,0.530018083998584
"sub-012",5,"right","accuracy","right","right",1,0.516217750002397
"sub-012",6,"left","accuracy","left","left",1,0.570182541006943
"sub-012",7,"right","accuracy","right","right",1,1.12248308300332
"sub-012",8,"left","accuracy","left","left",1,0.601853375002975
"sub-012",9,"left","accuracy","left","left",1,2.78092283399019
"sub-012",10,"right","accuracy","right","right",1,1.25331200000073
"sub-012",11,"left","accuracy","left","left",1,0.69474729099602
"sub-012",12,"right","accuracy","right","right",1,0.630777292011771
"sub-012",13,"right","accuracy","right","right",1,0.869937916999334
"sub-012",14,"left","accuracy","left","left",1,0.505743625006289
"sub-012",15,"right","accuracy","right","right",1,0.533233082998777
"sub-012",16,"left","accuracy","left","left",1,0.506317916995613
"sub-012",17,"right","accuracy","right","right",1,0.945105083999806
"sub-012",18,"left","accuracy","left","left",1,0.418069332998129
"sub-012",19,"right","accuracy","right","right",1,0.683054334003828
"sub-012",20,"left","accuracy","left","left",1,0.418213875003857
"sub-012",21,"right","accuracy","right","right",1,0.437172208010452
"sub-012",22,"left","accuracy","left","left",1,0.483062790997792
"sub-012",23,"right","accuracy","right","right",1,0.53466250000929
"sub-012",24,"left","accuracy","left","left",1,0.284110458000214
"sub-012",25,"left","accuracy","left","left",1,0.722251249986584
"sub-012",26,"right","accuracy","right","right",1,0.406963625006028
"sub-012",27,"left","accuracy","left","left",1,0.672647917002905
"sub-012",28,"right","accuracy","right","right",1,0.398695166994003
"sub-012",29,"left","accuracy","left","left",1,0.45890800000052
"sub-012",30,"right","accuracy","right","right",1,0.35759779199725
"sub-012",31,"right","accuracy","right","right",1,0.692360333006945
"sub-012",32,"left","accuracy","left","left",1,0.400639542000135
"sub-012",33,"right","accuracy","right","right",1,0.296022250011447
"sub-012",34,"left","accuracy","left","left",1,0.519193291998818
"sub-012",35,"left","accuracy","left","left",1,0.556451041993569
"sub-012",36,"right","accuracy","right","right",1,0.3497424590023
"sub-012",37,"right","accuracy","right","right",1,0.83116895800049
"sub-012",38,"left","accuracy","left","left",1,0.460850834002485
"sub-012",39,"left","accuracy","left","right",0,0.437622957993881
"sub-012",40,"right","accuracy","right","right",1,0.669069042007322
"sub-012",41,"right","accuracy","right","right",1,0.711620417001541
"sub-012",42,"left","accuracy","left","left",1,0.716113000002224
"sub-012",43,"right","accuracy","right","right",1,0.526903374993708
"sub-012",44,"left","accuracy","left","left",1,0.434175791990128
"sub-012",45,"left","accuracy","left","left",1,0.446191374998307
"sub-012",46,"right","accuracy","right","right",1,0.506535541993799
"sub-012",47,"right","accuracy","right","right",1,0.490749249991495
"sub-012",48,"left","accuracy","left","left",1,0.333935457994812
"sub-012",49,"right","accuracy","right","right",1,0.48711495900352
"sub-012",50,"left","accuracy","left","left",1,0.534739291993901
"sub-012",51,"right","accuracy","right","right",1,0.329828750007437
"sub-012",52,"left","accuracy","left","left",1,0.511800499996752
"sub-012",53,"left","accuracy","left","left",1,0.495169292000355
"sub-012",54,"right","accuracy","right","right",1,0.340651374994195
"sub-012",55,"right","accuracy","right","right",1,0.597471332992427
"sub-012",56,"left","accuracy","left","left",1,0.393336749999435
"sub-012",57,"right","accuracy","right","right",1,0.37621712499822
"sub-012",58,"left","accuracy","left","left",1,0.433943374999217
"sub-012",59,"right","accuracy","right","right",1,0.541981458009104
"sub-012",60,"left","accuracy","left","left",1,0.494441457994981
"sub-014",1,"left","speed","left","right",0,4.82044593800674
"sub-014",2,"right","speed","right","left",0,1.6149329040054
"sub-014",3,"right","speed","right","left",0,1.55076728499262
"sub-014",4,"left","speed","left","right",0,2.67147873599606
"sub-014",5,"right","speed","right","left",0,2.86513158999151
"sub-014",6,"left","speed","left","right",0,2.83208424199256
"sub-014",7,"right","speed","right","right",1,6.73323438799707
"sub-014",8,"left","speed","left","left",1,4.37791248600115
"sub-014",9,"left","speed","left","right",0,1.22417330399912
"sub-014",10,"right","speed","right","left",0,1.98051727199345
"sub-014",11,"right","speed","right","right",1,2.00955269200495
"sub-014",12,"left","speed","left","left",1,1.42258713000047
"sub-014",13,"right","speed","right","right",1,2.62331069099309
"sub-014",14,"left","speed","left","left",1,1.03201282199007
"sub-014",15,"left","speed","left","left",1,4.63134604299557
"sub-014",16,"right","speed","right","right",1,2.59627556600026
"sub-014",17,"right","speed","right","left",0,1.11869604499952
"sub-014",18,"left","speed","left","right",0,1.7035341069859
"sub-014",19,"right","speed","right","left",0,1.59726989000046
"sub-014",20,"left","speed","left","left",1,1.60303475799446
"sub-014",21,"right","speed","right","left",0,3.57619511798839
"sub-014",22,"left","speed","left","right",0,3.1380897850031
"sub-014",23,"right","speed","right","left",0,8.04217742900073
"sub-014",24,"left","speed","left","right",0,3.15285735799989
"sub-014",25,"left","speed","left","left",1,1.04576644800545
"sub-014",26,"right","speed","right","right",1,2.85922152300191
"sub-014",27,"right","speed","right","left",0,3.44026837999991
"sub-014",28,"left","speed","left","right",0,1.11440426199988
"sub-014",29,"right","speed","right","left",0,1.06113938799535
"sub-014",30,"left","speed","left","right",0,2.08555300299486
"sub-014",31,"right","speed","right","left",0,0.895955658997991
"sub-014",32,"left","speed","left","left",1,0.955728043001727
"sub-014",33,"right","speed","right","left",0,1.11320137500297
"sub-014",34,"left","speed","left","right",0,2.87269024200214
"sub-014",35,"right","speed","right","left",0,4.31651211999997
"sub-014",36,"left","speed","left","right",0,3.38581399100076
"sub-014",37,"left","speed","left","right",0,5.59643268000218
"sub-014",38,"right","speed","right","left",0,6.62916870298795
"sub-014",39,"right","speed","right","left",0,5.45946951799851
"sub-014",40,"left","speed","left","left",1,1.25682606699411
"sub-014",41,"right","speed","right","right",1,1.19831051099754
"sub-014",42,"left","speed","left","left",1,4.21597294100502
"sub-014",43,"right","speed","right","left",0,5.5681305390026
"sub-014",44,"left","speed","left","left",1,1.02906686998904
"sub-014",45,"left","speed","left","right",0,4.11749753300683
"sub-014",46,"right","speed","right","left",0,2.01185161100875
"sub-014",47,"left","speed","left","left",1,4.4031953500089
"sub-014",48,"right","speed","right","right",1,4.27034935599659
"sub-014",49,"left","speed","left","left",1,4.0934966019995
"sub-014",50,"right","speed","right","left",0,5.94053780699323
"sub-014",51,"left","speed","left","right",0,4.54790875299659
"sub-014",52,"right","speed","right","right",1,2.22356493299594
"sub-014",53,"right","speed","right","left",0,4.09935008500179
"sub-014",54,"left","speed","left","left",1,2.29656748799607
"sub-014",55,"left","speed","left","right",0,4.74854154700006
"sub-014",56,"right","speed","right","left",0,3.62491017999128
"sub-014",57,"right","speed","right","left",0,1.55347146200074
"sub-014",58,"left","speed","left","right",0,5.25941425999918
"sub-014",59,"left","speed","left","left",1,1.81581645998813
"sub-014",60,"right","speed","right","left",0,5.73461200301244
"sub-014",1,"left","accuracy","left","left",1,4.75110313399637
"sub-014",2,"right","accuracy","right","right",1,4.45957765600178
"sub-014",3,"left","accuracy","left","left",1,6.286911408999
"sub-014",4,"right","accuracy","right","left",0,4.43016795099538
"sub-014",5,"left","accuracy","left","left",1,2.8951747599931
"sub-014",6,"right","accuracy","right","right",1,1.23537206799665
"sub-014",7,"right","accuracy","right","left",0,4.27489701200102
"sub-014",8,"left","accuracy","left","left",1,2.58571537300304
"sub-014",9,"left","accuracy","left","left",1,5.81233898899518
"sub-014",10,"right","accuracy","right","right",1,4.19661625700246
"sub-014",11,"right","accuracy","right","right",1,4.69848424900556
"sub-014",12,"left","accuracy","left","left",1,4.30282114500005
"sub-014",13,"left","accuracy","left","left",1,4.99658668300253
"sub-014",14,"right","accuracy","right","right",1,0.834325478994288
"sub-014",15,"right","accuracy","right","right",1,1.49318061899976
"sub-014",16,"left","accuracy","left","left",1,1.07709677299135
"sub-014",17,"right","accuracy","right","right",1,4.20013230800396
"sub-014",18,"left","accuracy","left","left",1,4.97260210799868
"sub-014",19,"left","accuracy","left","right",0,2.88523629099654
"sub-014",20,"right","accuracy","right","right",1,3.38729318599508
"sub-014",21,"left","accuracy","left","left",1,1.01379527700192
"sub-014",22,"right","accuracy","right","right",1,0.859396215993911
"sub-014",23,"left","accuracy","left","left",1,0.807335467005032
"sub-014",24,"right","accuracy","right","left",0,0.773518410001998
"sub-014",25,"right","accuracy","right","right",1,0.701250721991528
"sub-014",26,"left","accuracy","left","left",1,0.697147454004153
"sub-014",27,"left","accuracy","left","left",1,5.32711190600821
"sub-014",28,"right","accuracy","right","right",1,3.79438160698919
"sub-014",29,"right","accuracy","right","left",0,3.22605376499996
"sub-014",30,"left","accuracy","left","right",0,0.799929205008084
"sub-014",31,"left","accuracy","left","left",1,0.93874841700017
"sub-014",32,"right","accuracy","right","right",1,0.88600606599357
"sub-014",33,"left","accuracy","left","left",1,0.713007970000035
"sub-014",34,"right","accuracy","right","right",1,0.859456092002802
"sub-014",35,"right","accuracy","right","left",0,3.18677214600029
"sub-014",36,"left","accuracy","left","left",1,2.21579210799246
"sub-014",37,"right","accuracy","right","right",1,1.44395225399057
"sub-014",38,"left","accuracy","left","left",1,2.19937886499974
"sub-014",39,"left","accuracy","left","left",1,3.75083816400729
"sub-014",40,"right","accuracy","right","left",0,1.76624674600316
"sub-014",41,"right","accuracy","right","right",1,0.737500047995127
"sub-014",42,"left","accuracy","left","left",1,1.97265288000926
"sub-014",43,"right","accuracy","right","right",1,1.57256992600742
"sub-014",44,"left","accuracy","left","left",1,1.13316340598976
"sub-014",45,"left","accuracy","left","left",1,5.70035461599764
"sub-014",46,"right","accuracy","right","left",0,7.19974264499615
"sub-014",47,"right","accuracy","right","left",0,4.55388405399572
"sub-014",48,"left","accuracy","left","left",1,3.22944586099766
"sub-014",49,"left","accuracy","left","right",0,0.964914165990194
"sub-014",50,"right","accuracy","right","left",0,0.844557183998404
"sub-014",51,"left","accuracy","left","right",0,0.8539745050075
"sub-014",52,"right","accuracy","right","left",0,0.862877788997139
"sub-014",53,"left","accuracy","left","right",0,3.00022927900136
"sub-014",54,"right","accuracy","right","left",0,1.1795015509997
"sub-014",55,"left","accuracy","left","left",1,2.36307136900723
"sub-014",56,"right","accuracy","right","right",1,1.47102425000048
"sub-014",57,"left","accuracy","left","left",1,0.772196340010851
"sub-014",58,"right","accuracy","right","right",1,5.33335159000126
"sub-014",59,"right","accuracy","right","left",0,1.36946007500228
"sub-014",60,"left","accuracy","left","left",1,1.18219881100231
"sub-015",1,"right","accuracy","right","left",0,2.00195853000332
"sub-015",2,"left","accuracy","left","right",0,2.41070909199334
"sub-015",3,"right","accuracy","right","right",1,4.06402602599701
"sub-015",4,"left","accuracy","left","left",1,1.47176759899594
"sub-015",5,"left","accuracy","left","left",1,3.0975605019994
"sub-015",6,"right","accuracy","right","right",1,1.83477093900001
"sub-015",7,"right","accuracy","right","right",1,2.94065858799877
"sub-015",8,"left","accuracy","left","left",1,1.51287586699618
"sub-015",9,"left","accuracy","left","right",0,1.31927184300002
"sub-015",10,"right","accuracy","right","right",1,1.87174567700276
"sub-015",11,"left","accuracy","left","left",1,4.27672587299458
"sub-015",12,"right","accuracy","right","left",0,2.51694385400333
"sub-015",13,"left","accuracy","left","right",0,2.58141825500206
"sub-015",14,"right","accuracy","right","right",1,2.4311236739959
"sub-015",15,"right","accuracy","right","left",0,2.62501340799645
"sub-015",16,"left","accuracy","left","left",1,2.41775902700465
"sub-015",17,"left","accuracy","left","left",1,4.19841930200346
"sub-015",18,"right","accuracy","right","right",1,2.09308478499588
"sub-015",19,"right","accuracy","right","right",1,4.11305219399947
"sub-015",20,"left","accuracy","left","left",1,2.54497786299908
"sub-015",21,"right","accuracy","right","right",1,5.57718986400141
"sub-015",22,"left","accuracy","left","left",1,3.24216544000228
"sub-015",23,"left","accuracy","left","left",1,2.66598160799913
"sub-015",24,"right","accuracy","right","left",0,4.93297363999591
"sub-015",25,"right","accuracy","right","right",1,0.906236077993526
"sub-015",26,"left","accuracy","left","left",1,6.60049304299901
"sub-015",27,"right","accuracy","right","left",0,5.31920205999631
"sub-015",28,"left","accuracy","left","right",0,3.77470000500034
"sub-015",29,"right","accuracy","right","right",1,4.64321373299754
"sub-015",30,"left","accuracy","left","left",1,3.96539334500267
"sub-015",31,"left","accuracy","left","left",1,3.55589725200116
"sub-015",32,"right","accuracy","right","right",1,4.08139744200162
"sub-015",33,"left","accuracy","left","left",1,4.81662485899869
"sub-015",34,"right","accuracy","right","right",1,3.52618676600105
"sub-015",35,"right","accuracy","right","right",1,3.54582485800347
"sub-015",36,"left","accuracy","left","left",1,2.96290146699903
"sub-015",37,"left","accuracy","left","left",1,2.04398854100145
"sub-015",38,"right","accuracy","right","right",1,1.52646993400413
"sub-015",39,"right","accuracy","right","right",1,1.90631795000081
"sub-015",40,"left","accuracy","left","left",1,1.9430031869997
"sub-015",41,"right","accuracy","right","right",1,1.60823324800003
"sub-015",42,"left","accuracy","left","left",1,3.25592671299819
"sub-015",43,"left","accuracy","left","left",1,2.20344407000084
"sub-015",44,"right","accuracy","right","right",1,1.24887628099532
"sub-015",45,"left","accuracy","left","left",1,3.11014863400487
"sub-015",46,"right","accuracy","right","right",1,4.07048681400192
"sub-015",47,"right","accuracy","right","left",0,4.19458961400233
"sub-015",48,"left","accuracy","left","right",0,4.53829964099714
"sub-015",49,"left","accuracy","left","left",1,3.60326249399805
"sub-015",50,"right","accuracy","right","right",1,3.66914201399777
"sub-015",51,"right","accuracy","right","right",1,2.82672713100328
"sub-015",52,"left","accuracy","left","left",1,3.40989504699974
"sub-015",53,"left","accuracy","left","left",1,3.09858750499552
"sub-015",54,"right","accuracy","right","right",1,1.54378861199802
"sub-015",55,"right","accuracy","right","right",1,1.48352171500301
"sub-015",56,"left","accuracy","left","left",1,3.7325246649998
"sub-015",57,"right","accuracy","right","right",1,2.16110738000134
"sub-015",58,"left","accuracy","left","left",1,1.48137522400066
"sub-015",59,"left","accuracy","left","left",1,2.94617840499996
"sub-015",60,"right","accuracy","right","right",1,1.83829749999859
"sub-015",1,"left","speed","left","left",1,3.87435658599861
"sub-015",2,"right","speed","right","right",1,0.999430178002512
"sub-015",3,"left","speed","left","left",1,0.317944982998597
"sub-015",4,"right","speed","right","right",1,1.62927222899452
"sub-015",5,"left","speed","left","left",1,1.200032404995
"sub-015",6,"right","speed","right","right",1,0.932345373999851
"sub-015",7,"right","speed","right","right",1,1.84605672699399
"sub-015",8,"left","speed","left","left",1,1.01719198899809
"sub-015",9,"left","speed","left","left",1,1.10011341299833
"sub-015",10,"right","speed","right","right",1,0.927931520003767
"sub-015",11,"right","speed","right","right",1,1.45805641399784
"sub-015",12,"left","speed","left","left",1,0.860839773005864
"sub-015",13,"right","speed","right","left",0,0.813935828002286
"sub-015",14,"left","speed","left","left",1,1.44799899300415
"sub-015",15,"right","speed","right","right",1,1.22582389699528
"sub-015",16,"left","speed","left","left",1,2.24170327599859
"sub-015",17,"right","speed","right","right",1,2.56121589300164
"sub-015",18,"left","speed","left","left",1,1.96737197699986
"sub-015",19,"right","speed","right","right",1,1.63965606300189
"sub-015",20,"left","speed","left","left",1,1.45409657900018
"sub-015",21,"left","speed","left","left",1,2.91596834599477
"sub-015",22,"right","speed","right","right",1,3.55298101399967
"sub-015",23,"right","speed","right","right",1,2.83339958400029
"sub-015",24,"left","speed","left","left",1,1.28695310899639
"sub-015",25,"left","speed","left","right",0,1.24072376700497
"sub-015",26,"right","speed","right","right",1,1.4644090399961
"sub-015",27,"left","speed","left","left",1,2.48814928700449
"sub-015",28,"right","speed","right","right",1,1.01166117099638
"sub-015",29,"right","speed","right","right",1,1.00102778300061
"sub-015",30,"left","speed","left","left",1,1.84802218299592
"sub-015",31,"left","speed","left","right",0,1.00974182800564
"sub-015",32,"right","speed","right","right",1,0.937114063002809
"sub-015",33,"left","speed","left","left",1,1.65462531599769
"sub-015",34,"right","speed","right","right",1,1.63649037999858
"sub-015",35,"left","speed","left","left",1,1.94298872199579
"sub-015",36,"right","speed","right","right",1,1.65213272300025
"sub-015",37,"left","speed","left","right",0,2.2264643219969
"sub-015",38,"right","speed","right","right",1,2.28316434700537
"sub-015",39,"left","speed","left","right",0,3.34935717500048
"sub-015",40,"right","speed","right","left",0,2.91608935100521
"sub-015",41,"right","speed","right","right",1,5.27779374999955
"sub-015",42,"left","speed","left","right",0,1.22451545999502
"sub-015",43,"right","speed","right","left",0,1.17174775300373
"sub-015",44,"left","speed","left","left",1,1.19659081200371
"sub-015",45,"left","speed","left","left",1,1.39488718099892
"sub-015",46,"right","speed","right","right",1,1.42592865399638
"sub-015",47,"left","speed","left","left",1,1.04121188299905
"sub-015",48,"right","speed","right","right",1,0.623003223001433
"sub-015",49,"right","speed","right","left",0,0.715625366996392
"sub-015",50,"left","speed","left","left",1,1.19854942399979
"sub-015",51,"right","speed","right","right",1,1.57158101000095
"sub-015",52,"left","speed","left","right",0,1.20079072900262
"sub-015",53,"right","speed","right","right",1,1.38021212199965
"sub-015",54,"left","speed","left","right",0,1.25847853900632
"sub-015",55,"right","speed","right","right",1,0.819837865004956
"sub-015",56,"left","speed","left","left",1,0.73908769099944
"sub-015",57,"left","speed","left","left",1,1.57670592700015
"sub-015",58,"right","speed","right","left",0,1.18710628500412
"sub-015",59,"right","speed","right","right",1,1.010477859003
"sub-015",60,"left","speed","left","right",0,1.40356962200167
"sub-019",1,"right","accuracy","right","right",1,0.545489869997255
"sub-019",2,"left","accuracy","left","right",0,0.995159298996441
"sub-019",3,"right","accuracy","right","right",1,1.62008269899525
"sub-019",4,"left","accuracy","left","left",1,2.78977662300167
"sub-019",5,"right","accuracy","right","right",1,0.977865243010456
"sub-019",6,"left","accuracy","left","left",1,1.87042428800487
"sub-019",7,"right","accuracy","right","right",1,0.803842085995711
"sub-019",8,"left","accuracy","left","left",1,1.60552749599447
"sub-019",9,"left","accuracy","left","left",1,3.43882540799677
"sub-019",10,"right","accuracy","right","right",1,0.874729984992882
"sub-019",11,"right","accuracy","right","right",1,1.15997339099704
"sub-019",12,"left","accuracy","left","left",1,1.20993606498814
"sub-019",13,"left","accuracy","left","right",0,0.949145898004645
"sub-019",14,"right","accuracy","right","right",1,0.838795673989807
"sub-019",15,"right","accuracy","right","right",1,0.805902691994561
"sub-019",16,"left","accuracy","left","right",0,0.563859867994324
"sub-019",17,"left","accuracy","left","left",1,1.06801697600167
"sub-019",18,"right","accuracy","right","right",1,1.31520104699302
"sub-019",19,"left","accuracy","left","left",1,1.61111435199564
"sub-019",20,"right","accuracy","right","right",1,0.845442351012025
"sub-019",21,"left","accuracy","left","left",1,0.963073349004844
"sub-019",22,"right","accuracy","right","right",1,1.11441869400733
"sub-019",23,"right","accuracy","right","left",0,2.96655676599767
"sub-019",24,"left","accuracy","left","left",1,1.1635316079919
"sub-019",25,"left","accuracy","left","left",1,2.73758141700819
"sub-019",26,"right","accuracy","right","right",1,1.80162458399718
"sub-019",27,"right","accuracy","right","left",0,1.70483290099946
"sub-019",28,"left","accuracy","left","right",0,1.73315232500318
"sub-019",29,"right","accuracy","right","right",1,0.679330387007212
"sub-019",30,"left","accuracy","left","left",1,0.74770636500034
"sub-019",31,"right","accuracy","right","right",1,1.16720779999741
"sub-019",32,"left","accuracy","left","left",1,0.765100126998732
"sub-019",33,"left","accuracy","left","left",1,0.5973693440028
"sub-019",34,"right","accuracy","right","right",1,1.07276016799733
"sub-019",35,"right","accuracy","right","left",0,2.27498784499767
"sub-019",36,"left","accuracy","left","left",1,1.087667735992
"sub-019",37,"right","accuracy","right","right",1,2.56210138199094
"sub-019",38,"left","accuracy","left","left",1,2.66088279699034
"sub-019",39,"right","accuracy","right","right",1,1.81057823299488
"sub-019",40,"left","accuracy","left","left",1,2.29732155799866
"sub-019",41,"right","accuracy","right","right",1,1.40016678899701
"sub-019",42,"left","accuracy","left","left",1,2.10028773199883
"sub-019",43,"left","accuracy","left","left",1,1.66288107199944
"sub-019",44,"right","accuracy","right","right",1,2.53174873399257
"sub-019",45,"left","accuracy","left","left",1,0.728892290004296
"sub-019",46,"right","accuracy","right","right",1,1.56102246699447
"sub-019",47,"left","accuracy","left","left",1,1.53465995300212
"sub-019",48,"right","accuracy","right","right",1,0.979621237012907
"sub-019",49,"left","accuracy","left","left",1,1.70746756599692
"sub-019",50,"right","accuracy","right","right",1,1.39411592899705
"sub-019",51,"left","accuracy","left","left",1,2.11933956800203
"sub-019",52,"right","accuracy","right","left",0,1.26266316699912
"sub-019",53,"right","accuracy","right","right",1,2.27400864000083
"sub-019",54,"left","accuracy","left","left",1,1.52989577800327
"sub-019",55,"left","accuracy","left","left",1,3.61239258700516
"sub-019",56,"right","accuracy","right","right",1,3.06755800999235
"sub-019",57,"right","accuracy","right","right",1,2.65891968100914
"sub-019",58,"left","accuracy","left","left",1,0.778592780989129
"sub-019",59,"left","accuracy","left","left",1,0.873221108995494
"sub-019",60,"right","accuracy","right","right",1,0.860560127999634
"sub-019",1,"right","speed","right","right",1,0.362136968004052
"sub-019",2,"left","speed","left","left",1,0.33820992699475
"sub-019",3,"left","speed","left","left",1,0.349400706007145
"sub-019",4,"right","speed","right","right",1,0.343770595995011
"sub-019",5,"left","speed","left","left",1,0.404667688999325
"sub-019",6,"right","speed","right","left",0,0.506765826998162
"sub-019",7,"right","speed","right","right",1,0.504020669992315
"sub-019",8,"left","speed","left","left",1,0.44075261199032
"sub-019",9,"right","speed","right","right",1,0.547197002000757
"sub-019",10,"left","speed","left","left",1,1.08139182299783
"sub-019",11,"right","speed","right","left",0,0.609126682000351
"sub-019",12,"left","speed","left","left",1,0.600187796997488
"sub-019",13,"right","speed","right","right",1,1.14634430299338
"sub-019",14,"left","speed","left","left",1,0.532213757993304
"sub-019",15,"right","speed","right","right",1,0.763555963989347
"sub-019",16,"left","speed","left","left",1,0.503550576991984
"sub-019",17,"left","speed","left","left",1,0.528673266991973
"sub-019",18,"right","speed","right","left",0,0.558062972006155
"sub-019",19,"right","speed","right","right",1,1.17319054699328
"sub-019",20,"left","speed","left","left",1,0.621552219003206
"sub-019",21,"right","speed","right","right",1,2.79989691800438
"sub-019",22,"left","speed","left","left",1,0.325408919990878
"sub-019",23,"left","speed","left","left",1,0.398835394007619
"sub-019",24,"right","speed","right","left",0,0.576412362002884
"sub-019",25,"left","speed","left","right",0,0.583623466998688
"sub-019",26,"right","speed","right","left",0,0.55342233099509
"sub-019",27,"left","speed","left","left",1,0.521641348997946
"sub-019",28,"right","speed","right","right",1,0.974934500001837
"sub-019",29,"right","speed","right","left",0,0.846556364995195
"sub-019",30,"left","speed","left","left",1,0.807102744001895
"sub-019",31,"right","speed","right","right",1,0.826216454996029
"sub-019",32,"left","speed","left","left",1,0.814821096995729
"sub-019",33,"right","speed","right","right",1,2.11373696499504
"sub-019",34,"left","speed","left","left",1,0.606154149005306
"sub-019",35,"left","speed","left","left",1,1.42707050898753
"sub-019",36,"right","speed","right","left",0,3.35042953499942
"sub-019",37,"left","speed","left","left",1,0.797715503998916
"sub-019",38,"right","speed","right","left",0,0.715878415008774
"sub-019",39,"right","speed","right","left",0,1.87999067200872
"sub-019",40,"left","speed","left","right",0,2.17564916399715
"sub-019",41,"left","speed","left","left",1,0.70997230100329
"sub-019",42,"right","speed","right","right",1,1.81765206200362
"sub-019",43,"left","speed","left","left",1,2.22050969899283
"sub-019",44,"right","speed","right","left",0,0.664424054004485
"sub-019",45,"right","speed","right","right",1,3.01403735698841
"sub-019",46,"left","speed","left","left",1,1.06586539500859
"sub-019",47,"right","speed","right","left",0,4.51752931300143
"sub-019",48,"left","speed","left","left",1,0.808153074991424
"sub-019",49,"left","speed","left","left",1,2.71677237200493
"sub-019",50,"right","speed","right","left",0,2.97500021799351
"sub-019",51,"right","speed","right","right",1,1.96570930699818
"sub-019",52,"left","speed","left","left",1,0.462463078001747
"sub-019",53,"left","speed","left","left",1,3.58734537599958
"sub-019",54,"right","speed","right","right",1,1.85265753199928
"sub-019",55,"right","speed","right","right",1,1.47090426999785
"sub-019",56,"left","speed","left","left",1,1.2789673369989
"sub-019",57,"left","speed","left","left",1,1.23291024500213
"sub-019",58,"right","speed","right","right",1,2.34555502700096
"sub-019",59,"right","speed","right","right",1,2.23202117699839
"sub-019",60,"left","speed","left","left",1,0.796499845993822
"sub-021",1,"right","speed","right","right",1,0.527347584022209
"sub-021",2,"left","speed","left","right",0,1.31067516695475
"sub-021",3,"right","speed","right","left",0,1.86489908397198
"sub-021",4,"left","speed","left","left",1,3.06363608298125
"sub-021",5,"left","speed","left","left",1,6.01935399998911
"sub-021",6,"right","speed","right","right",1,3.49658908403944
"sub-021",7,"right","speed","right","left",0,1.23219441698166
"sub-021",8,"left","speed","left","left",1,4.05152450001333
"sub-021",9,"right","speed","right","left",0,5.62472958402941
"sub-021",10,"left","speed","left","left",1,1.87087629199959
"sub-021",11,"left","speed","left","left",1,5.57562566699926
"sub-021",12,"right","speed","right","right",1,4.74820912501309
"sub-021",13,"left","speed","left","left",1,5.59807545796502
"sub-021",14,"right","speed","right","left",0,5.47198204201413
"sub-021",15,"left","speed","left","left",1,4.67103937600041
"sub-021",16,"right","speed","right","left",0,5.12468024995178
"sub-021",17,"right","speed","right","right",1,2.46866587502882
"sub-021",18,"left","speed","left","left",1,2.44208904198604
"sub-021",19,"right","speed","right","right",1,1.92193579196464
"sub-021",20,"left","speed","left","left",1,2.79639641701942
"sub-021",21,"right","speed","right","left",0,3.77977741701761
"sub-021",22,"left","speed","left","left",1,5.55867962498451
"sub-021",23,"left","speed","left","left",1,3.39720195898553
"sub-021",24,"right","speed","right","left",0,5.58732158399653
"sub-021",25,"left","speed","left","left",1,5.4471110420418
"sub-021",26,"right","speed","right","left",0,2.35198804200627
"sub-021",27,"left","speed","left","left",1,0.74616891698679
"sub-021",28,"right","speed","right","left",0,3.04737754201051
"sub-021",29,"right","speed","right","right",1,3.96644658403238
"sub-021",30,"left","speed","left","left",1,4.36156829202082
"sub-021",31,"left","speed","left","left",1,3.65198791702278
"sub-021",32,"right","speed","right","left",0,3.13695204199757
"sub-021",33,"right","speed","right","left",0,2.23974004201591
"sub-021",34,"left","speed","left","left",1,2.53839254198829
"sub-021",35,"right","speed","right","left",0,1.97379841702059
"sub-021",36,"left","speed","left","left",1,3.94969150098041
"sub-021",37,"left","speed","left","left",1,5.74265841697343
"sub-021",38,"right","speed","right","left",0,5.51382083405042
"sub-021",39,"left","speed","left","left",1,4.68655720801326
"sub-021",40,"right","speed","right","right",1,3.44261129200459
"sub-021",41,"right","speed","right","left",0,5.47628762497334
"sub-021",42,"left","speed","left","left",1,5.49073600000702
"sub-021",43,"left","speed","left","right",0,2.84329908405198
"sub-021",44,"right","speed","right","right",1,2.68369295803132
"sub-021",45,"right","speed","right","right",1,3.78262141701998
"sub-021",46,"left","speed","left","right",0,2.00984195905039
"sub-021",47,"right","speed","right","right",1,2.05115837499034
"sub-021",48,"left","speed","left","right",0,3.12267279200023
"sub-021",49,"right","speed","right","right",1,2.24467062496114
"sub-021",50,"left","speed","left","right",0,1.63447812502272
"sub-021",51,"right","speed","right","right",1,0.832545376033522
"sub-021",52,"left","speed","left","right",0,3.74926658399636
"sub-021",53,"left","speed","left","right",0,0.864431626047008
"sub-021",54,"right","speed","right","right",1,1.23370425100438
"sub-021",55,"right","speed","right","right",1,0.739343916997313
"sub-021",56,"left","speed","left","right",0,1.43753525003558
"sub-021",57,"right","speed","right","right",1,0.740644833946135
"sub-021",58,"left","speed","left","right",0,0.617690458951984
"sub-021",59,"left","speed","left","right",0,2.26061479200143
"sub-021",60,"right","speed","right","right",1,0.600798667001072
"sub-021",1,"left","accuracy","left","right",0,1.99311237601796
"sub-021",2,"right","accuracy","right","right",1,5.48078458401142
"sub-021",3,"right","accuracy","right","right",1,2.95591479202267
"sub-021",4,"left","accuracy","left","right",0,1.702852916962
"sub-021",5,"right","accuracy","right","right",1,1.88288341695443
"sub-021",6,"left","accuracy","left","right",0,0.890637000964489
"sub-021",7,"left","accuracy","left","right",0,2.60400912497425
"sub-021",8,"right","accuracy","right","right",1,1.72325837501558
"sub-021",9,"left","accuracy","left","right",0,1.64450033300091
"sub-021",10,"right","accuracy","right","right",1,1.96724087500479
"sub-021",11,"right","accuracy","right","right",1,0.781966708018444
"sub-021",12,"left","accuracy","left","right",0,0.39088704198366
"sub-021",13,"left","accuracy","left","right",0,1.33156416699057
"sub-021",14,"right","accuracy","right","right",1,4.50184662500396
"sub-021",15,"right","accuracy","right","right",1,5.63313741702586
"sub-021",16,"left","accuracy","left","right",0,5.5540775420377
"sub-021",17,"left","accuracy","left","right",0,5.43964304198744
"sub-021",18,"right","accuracy","right","right",1,3.88664470799267
"sub-021",19,"left","accuracy","left","right",0,1.77158866700483
"sub-021",20,"right","accuracy","right","right",1,5.49387962499168
"sub-021",21,"left","accuracy","left","right",0,3.78104283404537
"sub-021",22,"right","accuracy","right","left",0,4.68163350003306
"sub-021",23,"left","accuracy","left","left",1,5.49087033298565
"sub-021",24,"right","accuracy","right","right",1,3.10267912503332
"sub-021",25,"left","accuracy","left","right",0,4.95044504199177
"sub-021",26,"right","accuracy","right","right",1,5.48802995803999
"sub-021",27,"right","accuracy","right","right",1,3.61742158298148
"sub-021",28,"left","accuracy","left","right",0,1.699194292014
"sub-021",29,"right","accuracy","right","left",0,6.2523152079666
"sub-021",30,"left","accuracy","left","left",1,5.48376616695896
"sub-021",31,"right","accuracy","right","left",0,5.76028016698547
"sub-021",32,"left","accuracy","left","right",0,1.41872920905007
"sub-021",33,"right","accuracy","right","right",1,2.45781466696644
"sub-021",34,"left","accuracy","left","left",1,2.75289970904123
"sub-021",35,"right","accuracy","right","left",0,4.44604033400538
"sub-021",36,"left","accuracy","left","left",1,3.98673883400625
"sub-021",37,"right","accuracy","right","left",0,2.80882883403683
"sub-021",38,"left","accuracy","left","left",1,3.52451133402064
"sub-021",39,"left","accuracy","left","left",1,3.82695504202275
"sub-021",40,"right","accuracy","right","right",1,5.43770808400586
"sub-021",41,"left","accuracy","left","left",1,5.40618729201378
"sub-021",42,"right","accuracy","right","left",0,4.40169799997238
"sub-021",43,"right","accuracy","right","left",0,3.16370112501318
"sub-021",44,"left","accuracy","left","left",1,2.90649262600346
"sub-021",45,"right","accuracy","right","left",0,5.46845087595284
"sub-021",46,"left","accuracy","left","left",1,3.39501974999439
"sub-021",47,"left","accuracy","left","left",1,4.3743109589559
"sub-021",48,"right","accuracy","right","left",0,2.68697833397891
"sub-021",49,"left","accuracy","left","right",0,1.85412962600822
"sub-021",50,"right","accuracy","right","right",1,6.75987549999263
"sub-021",51,"left","accuracy","left","right",0,4.32945954200113
"sub-021",52,"right","accuracy","right","left",0,4.12173579202499
"sub-021",53,"left","accuracy","left","left",1,5.55160345800687
"sub-021",54,"right","accuracy","right","left",0,1.31017512601102
"sub-021",55,"right","accuracy","right","left",0,5.53908612503437
"sub-021",56,"left","accuracy","left","left",1,3.19115508400137
"sub-021",57,"left","accuracy","left","left",1,3.95806637499481
"sub-021",58,"right","accuracy","right","left",0,3.43214304203866
"sub-021",59,"right","accuracy","right","left",0,5.48478479200276
"sub-021",60,"left","accuracy","left","left",1,2.68324479198782
"sub-022",1,"right","speed","right","left",0,2.78748800099129
"sub-022",2,"left","speed","left","right",0,1.54532191698672
"sub-022",3,"right","speed","right","left",0,2.35090895899339
"sub-022",4,"left","speed","left","left",1,4.30354641703889
"sub-022",5,"left","speed","left","left",1,4.37597254198045
"sub-022",6,"right","speed","right","left",0,5.22887070901925
"sub-022",7,"left","speed","left","left",1,3.01187516801292
"sub-022",8,"right","speed","right","left",0,4.58486883400474
"sub-022",9,"right","speed","right","left",0,3.23935362504562
"sub-022",10,"left","speed","left","left",1,5.4306228759815
"sub-022",11,"right","speed","right","left",0,5.50836179294856
"sub-022",12,"left","speed","left","left",1,3.00748583400855
"sub-022",13,"right","speed","right","left",0,5.49841400096193
"sub-022",14,"left","speed","left","left",1,5.445148918021
"sub-022",15,"right","speed","right","right",1,4.92338787601329
"sub-022",16,"left","speed","left","left",1,5.41234054300003
"sub-022",17,"right","speed","right","right",1,5.38892599998508
"sub-022",18,"left","speed","left","right",0,4.05273541697534
"sub-022",19,"right","speed","right","right",1,6.08772050001426
"sub-022",20,"left","speed","left","right",0,5.26757954299683
"sub-022",21,"right","speed","right","right",1,3.57527937600389
"sub-022",22,"left","speed","left","right",0,4.17025770898908
"sub-022",23,"left","speed","left","right",0,3.004962084
"sub-022",24,"right","speed","right","left",0,5.11663970904192
"sub-022",25,"left","speed","left","left",1,1.69113004300743
"sub-022",26,"right","speed","right","right",1,2.01955537497997
"sub-022",27,"left","speed","left","right",0,2.84510887501528
"sub-022",28,"right","speed","right","right",1,2.04174366698135
"sub-022",29,"left","speed","left","left",1,1.01366933400277
"sub-022",30,"right","speed","right","right",1,0.853067708958406
"sub-022",31,"left","speed","left","right",0,3.33365891699214
"sub-022",32,"right","speed","right","left",0,5.26420791703276
"sub-022",33,"right","speed","right","left",0,4.56089366803644
"sub-022",34,"left","speed","left","left",1,5.0083050840185
"sub-022",35,"right","speed","right","left",0,4.91147208400071
"sub-022",36,"left","speed","left","right",0,5.35910033399705
"sub-022",37,"left","speed","left","left",1,5.48638045904227
"sub-022",38,"right","speed","right","right",1,6.00597745896084
"sub-022",39,"right","speed","right","right",1,4.26627883396577
"sub-022",40,"left","speed","left","left",1,3.45525900000939
"sub-022",41,"left","speed","left","right",0,1.29033129202435
"sub-022",42,"right","speed","right","left",0,3.75932874996215
"sub-022",43,"right","speed","right","left",0,5.33263516699662
"sub-022",44,"left","speed","left","left",1,1.40572120901197
"sub-022",45,"right","speed","right","right",1,1.71919054200407
"sub-022",46,"left","speed","left","left",1,0.978908666991629
"sub-022",47,"right","speed","right","left",0,5.34907758398913
"sub-022",48,"left","speed","left","right",0,1.24367925000843
"sub-022",49,"right","speed","right","right",1,2.74792841699673
"sub-022",50,"left","speed","left","left",1,2.70628170901909
"sub-022",51,"left","speed","left","left",1,4.58517645904794
"sub-022",52,"right","speed","right","left",0,5.17011154297506
"sub-022",53,"right","speed","right","left",0,5.05958754295716
"sub-022",54,"left","speed","left","left",1,5.37200770899653
"sub-022",55,"right","speed","right","right",1,4.14201554196188
"sub-022",56,"left","speed","left","left",1,4.69543750002049
"sub-022",57,"right","speed","right","right",1,5.39089408400469
"sub-022",58,"left","speed","left","left",1,2.90036237600725
"sub-022",59,"left","speed","left","left",1,3.92130600003293
"sub-022",60,"right","speed","right","right",1,4.26447720901342
"sub-022",1,"left","accuracy","left","left",1,1.03154591703787
"sub-022",2,"right","accuracy","right","right",1,4.36793683399446
"sub-022",3,"right","accuracy","right","right",1,4.4184226259822
"sub-022",4,"left","accuracy","left","left",1,4.96407900098711
"sub-022",5,"right","accuracy","right","left",0,5.94620458403369
"sub-022",6,"left","accuracy","left","right",0,4.15869950101478
"sub-022",7,"right","accuracy","right","left",0,5.36720962496474
"sub-022",8,"left","accuracy","left","left",1,6.06783791701309
"sub-022",9,"left","accuracy","left","left",1,5.59769695898285
"sub-022",10,"right","accuracy","right","right",1,5.37683470902266
"sub-022",11,"left","accuracy","left","right",0,5.32481762598036
"sub-022",12,"right","accuracy","right","right",1,3.38843841798371
"sub-022",13,"left","accuracy","left","right",0,5.26942125096684
"sub-022",14,"right","accuracy","right","right",1,5.5313370009535
"sub-022",15,"right","accuracy","right","right",1,5.36952687497251
"sub-022",16,"left","accuracy","left","right",0,5.35176712600514
"sub-022",17,"right","accuracy","right","right",1,3.83283441798994
"sub-022",18,"left","accuracy","left","right",0,5.2882361250231
"sub-022",19,"right","accuracy","right","right",1,3.8410865010228
"sub-022",20,"left","accuracy","left","left",1,5.67847220902331
"sub-022",21,"right","accuracy","right","right",1,2.32604483398609
"sub-022",22,"left","accuracy","left","left",1,5.37743737600977
"sub-022",23,"left","accuracy","left","right",0,5.47078591794707
"sub-022",24,"right","accuracy","right","right",1,3.3025827499805
"sub-022",25,"right","accuracy","right","left",0,3.2175728760194
"sub-022",26,"left","accuracy","left","right",0,1.63119537499733
"sub-022",27,"right","accuracy","right","right",1,2.92383066698676
"sub-022",28,"left","accuracy","left","left",1,0.945560458989348
"sub-022",29,"left","accuracy","left","right",0,5.35165833402425
"sub-022",30,"right","accuracy","right","left",0,1.62996437598485
"sub-022",31,"right","accuracy","right","left",0,1.89768266695319
"sub-022",32,"left","accuracy","left","left",1,2.92126920900773
"sub-022",33,"left","accuracy","left","left",1,4.36542633397039
"sub-022",34,"right","accuracy","right","right",1,5.22770895902067
"sub-022",35,"right","accuracy","right","right",1,5.38159875001293
"sub-022",36,"left","accuracy","left","left",1,5.62970583402785
"sub-022",37,"left","accuracy","left","left",1,1.61421616800362
"sub-022",38,"right","accuracy","right","left",0,3.09389083401766
"sub-022",39,"left","accuracy","left","right",0,4.21847629203694
"sub-022",40,"right","accuracy","right","right",1,5.34440633398481
"sub-022",41,"right","accuracy","right","right",1,2.64445241697831
"sub-022",42,"left","accuracy","left","right",0,5.06210650102003
"sub-022",43,"left","accuracy","left","left",1,3.54553504299838
"sub-022",44,"right","accuracy","right","left",0,5.72148666798603
"sub-022",45,"left","accuracy","left","left",1,3.81455670902506
"sub-022",46,"right","accuracy","right","right",1,5.43164716695901
"sub-022",47,"left","accuracy","left","right",0,3.13607362500625
"sub-022",48,"right","accuracy","right","left",0,6.5848813339835
"sub-022",49,"right","accuracy","right","left",0,3.69911633402808
"sub-022",50,"left","accuracy","left","right",0,1.07378495903686
"sub-022",51,"right","accuracy","right","right",1,5.57830483402358
"sub-022",52,"left","accuracy","left","right",0,5.62865262595005
"sub-022",53,"left","accuracy","left","left",1,2.56392116699135
"sub-022",54,"right","accuracy","right","left",0,3.47123316698708
"sub-022",55,"left","accuracy","left","left",1,5.35766866698395
"sub-022",56,"right","accuracy","right","right",1,2.91641450102907
"sub-022",57,"left","accuracy","left","left",1,5.46560075104935
"sub-022",58,"right","accuracy","right","right",1,1.61136574996635
"sub-022",59,"right","accuracy","right","left",0,3.11500162497396
"sub-022",60,"left","accuracy","left","left",1,5.38435708399629
"sub-023",1,"right","speed","right","right",1,1.07779374998063
"sub-023",2,"left","speed","left","right",0,1.64805666700704
"sub-023",3,"left","speed","left","right",0,1.52225633402122
"sub-023",4,"right","speed","right","left",0,1.5484220830258
"sub-023",5,"left","speed","left","left",1,3.32175479200669
"sub-023",6,"right","speed","right","right",1,2.59374041703995
"sub-023",7,"right","speed","right","left",0,3.22920620802324
"sub-023",8,"left","speed","left","right",0,4.31286204099888
"sub-023",9,"right","speed","right","right",1,4.8502132089925
"sub-023",10,"left","speed","left","right",0,2.31973958294839
"sub-023",11,"right","speed","right","left",0,1.9710382919875
"sub-023",12,"left","speed","left","left",1,4.67663779098075
"sub-023",13,"right","speed","right","right",1,3.42909716599388
"sub-023",14,"left","speed","left","left",1,1.30104808398755
"sub-023",15,"right","speed","right","right",1,4.27513366600033
"sub-023",16,"left","speed","left","right",0,2.21316537499661
"sub-023",17,"right","speed","right","left",0,5.54607691703131
"sub-023",18,"left","speed","left","left",1,5.05386024998734
"sub-023",19,"left","speed","left","left",1,4.07060170796467
"sub-023",20,"right","speed","right","left",0,3.78846337500727
"sub-023",21,"left","speed","left","right",0,5.21569666697178
"sub-023",22,"right","speed","right","left",0,5.10830095800338
"sub-023",23,"left","speed","left","left",1,5.44846387498546
"sub-023",24,"right","speed","right","right",1,2.2654861669871
"sub-023",25,"right","speed","right","left",0,1.51684779196512
"sub-023",26,"left","speed","left","left",1,5.39378975
"sub-023",27,"left","speed","left","left",1,2.02882029098691
"sub-023",28,"right","speed","right","left",0,4.94933858298464
"sub-023",29,"left","speed","left","left",1,5.63793762499699
"sub-023",30,"right","speed","right","right",1,1.22585874999641
"sub-023",31,"right","speed","right","right",1,2.34790366701782
"sub-023",32,"left","speed","left","left",1,5.33536437503062
"sub-023",33,"left","speed","left","right",0,4.15651891700691
"sub-023",34,"right","speed","right","left",0,7.03388591698604
"sub-023",35,"right","speed","right","right",1,4.15183154202532
"sub-023",36,"left","speed","left","left",1,4.62740033300361
"sub-023",37,"left","speed","left","right",0,5.39644162502373
"sub-023",38,"right","speed","right","right",1,5.34124466596404
"sub-023",39,"left","speed","left","left",1,3.64888470899314
"sub-023",40,"right","speed","right","right",1,3.0083220420056
"sub-023",41,"right","speed","right","left",0,5.30862704198807
"sub-023",42,"left","speed","left","right",0,2.00575779203791
"sub-023",43,"left","speed","left","left",1,2.27711333299521
"sub-023",44,"right","speed","right","left",0,5.2797140419716
"sub-023",45,"right","speed","right","left",0,4.44809020904358
"sub-023",46,"left","speed","left","left",1,5.68307554203784
"sub-023",47,"left","speed","left","right",0,2.60988758405438
"sub-023",48,"right","speed","right","left",0,6.37651629099855
"sub-023",49,"left","speed","left","right",0,1.54675670800498
"sub-023",50,"right","speed","right","right",1,5.10591141600162
"sub-023",51,"right","speed","right","right",1,3.33539074996952
"sub-023",52,"left","speed","left","left",1,2.05335858400213
"sub-023",53,"left","speed","left","right",0,1.86433979199501
"sub-023",54,"right","speed","right","right",1,5.53872645797674
"sub-023",55,"left","speed","left","left",1,3.5001165420399
"sub-023",56,"right","speed","right","right",1,1.68728870898485
"sub-023",57,"left","speed","left","left",1,2.36492799996631
"sub-023",58,"right","speed","right","left",0,3.79845674999524
"sub-023",59,"left","speed","left","right",0,2.27617916697636
"sub-023",60,"right","speed","right","left",0,5.37145258300006
"sub-023",1,"left","accuracy","left","right",0,3.42728429200361
"sub-023",2,"right","accuracy","right","right",1,3.42232370801503
"sub-023",3,"left","accuracy","left","left",1,5.26654754200717
"sub-023",4,"right","accuracy","right","right",1,3.79797687503742
"sub-023",5,"right","accuracy","right","left",0,4.02566183300223
"sub-023",6,"left","accuracy","left","left",1,3.09430395800155
"sub-023",7,"left","accuracy","left","right",0,2.5648688749643
"sub-023",8,"right","accuracy","right","left",0,4.26244395901449
"sub-023",9,"left","accuracy","left","left",1,3.17132179200416
"sub-023",10,"right","accuracy","right","left",0,4.42117129202234
"sub-023",11,"left","accuracy","left","left",1,4.29174341697944
"sub-023",12,"right","accuracy","right","right",1,3.9412674580235
"sub-023",13,"left","accuracy","left","right",0,3.7214980419958
"sub-023",14,"right","accuracy","right","right",1,4.71703662502114
"sub-023",15,"right","accuracy","right","left",0,2.98289004201069
"sub-023",16,"left","accuracy","left","right",0,4.61926054197829
"sub-023",17,"left","accuracy","left","left",1,5.38639662502101
"sub-023",18,"right","accuracy","right","left",0,5.54110083403066
"sub-023",19,"left","accuracy","left","left",1,4.27662329201121
"sub-023",20,"right","accuracy","right","left",0,3.81057324999711
"sub-023",21,"right","accuracy","right","right",1,3.40133370901458
"sub-023",22,"left","accuracy","left","left",1,4.07418245798908
"sub-023",23,"left","accuracy","left","right",0,5.27785904100165
"sub-023",24,"right","accuracy","right","left",0,4.60299837496132
"sub-023",25,"left","accuracy","left","left",1,4.22245012497297
"sub-023",26,"right","accuracy","right","left",0,5.6632355839829
"sub-023",27,"left","accuracy","left","left",1,4.10763650003355
"sub-023",28,"right","accuracy","right","right",1,5.30178283399437
"sub-023",29,"right","accuracy","right","right",1,2.91587616602192
"sub-023",30,"left","accuracy","left","left",1,5.35669599997345
"sub-023",31,"left","accuracy","left","right",0,2.15853008301929
"sub-023",32,"right","accuracy","right","right",1,4.28513166698394
"sub-023",33,"left","accuracy","left","right",0,4.60713745898101
"sub-023",34,"right","accuracy","right","right",1,1.18794279097347
"sub-023",35,"left","accuracy","left","right",0,5.41577800002415
"sub-023",36,"right","accuracy","right","right",1,5.3741068340023
"sub-023",37,"right","accuracy","right","left",0,3.54921987501439
"sub-023",38,"left","accuracy","left","right",0,5.38037095800973
"sub-023",39,"right","accuracy","right","left",0,3.03754183300771
"sub-023",40,"left","accuracy","left","right",0,2.78686029202072
"sub-023",41,"left","accuracy","left","left",1,2.45600387500599
"sub-023",42,"right","accuracy","right","right",1,2.27825970802223
"sub-023",43,"left","accuracy","left","right",0,3.19287695898674
"sub-023",44,"right","accuracy","right","left",0,3.72747558302944
"sub-023",45,"left","accuracy","left","left",1,3.90306408301694
"sub-023",46,"right","accuracy","right","left",0,4.40139108296717
"sub-023",47,"right","accuracy","right","right",1,3.5256206250051
"sub-023",48,"left","accuracy","left","left",1,1.83567904203664
"sub-023",49,"left","accuracy","left","right",0,4.06753025000216
"sub-023",50,"right","accuracy","right","right",1,2.93357774999458
"sub-023",51,"right","accuracy","right","right",1,4.15242341696285
"sub-023",52,"left","accuracy","left","right",0,2.46760158304824
"sub-023",53,"right","accuracy","right","left",0,2.15316637494834
"sub-023",54,"left","accuracy","left","left",1,5.54031179100275
"sub-023",55,"left","accuracy","left","right",0,3.05520441703266
"sub-023",56,"right","accuracy","right","right",1,1.94331645901548
"sub-023",57,"left","accuracy","left","right",0,2.49168012500741
"sub-023",58,"right","accuracy","right","right",1,4.79360179201467
"sub-023",59,"left","accuracy","left","right",0,2.0062974159955
"sub-023",60,"right","accuracy","right","right",1,2.51740650000283
"sub-025",1,"left","speed","left","left",1,1.1148211969994
"sub-025",2,"right","speed","right","right",1,0.736665123004059
"sub-025",3,"right","speed","right","right",1,1.49583197600441
"sub-025",4,"left","speed","left","left",1,2.23559982800361
"sub-025",5,"right","speed","right","left",0,1.10823565999453
"sub-025",6,"left","speed","left","right",0,2.52712610299932
"sub-025",7,"left","speed","left","left",1,2.06328884200047
"sub-025",8,"right","speed","right","right",1,4.03840129399759
"sub-025",9,"right","speed","right","right",1,0.953071089999867
"sub-025",10,"left","speed","left","left",1,1.68830684899876
"sub-025",11,"right","speed","right","right",1,0.821745624998584
"sub-025",12,"left","speed","left","left",1,0.851210606000677
"sub-025",13,"right","speed","right","right",1,0.938330946999486
"sub-025",14,"left","speed","left","left",1,0.810505110006488
"sub-025",15,"left","speed","left","right",0,0.935378690002835
"sub-025",16,"right","speed","right","right",1,0.789536699005112
"sub-025",17,"left","speed","left","left",1,0.647967805998633
"sub-025",18,"right","speed","right","right",1,2.07160643800307
"sub-025",19,"right","speed","right","right",1,0.783368162999977
"sub-025",20,"left","speed","left","left",1,0.732695888000308
"sub-025",21,"left","speed","left","left",1,0.815008768993721
"sub-025",22,"right","speed","right","right",1,1.33318137300375
"sub-025",23,"left","speed","left","left",1,0.822037783000269
"sub-025",24,"right","speed","right","left",0,1.35054775299795
"sub-025",25,"left","speed","left","right",0,0.840624199001468
"sub-025",26,"right","speed","right","right",1,0.867327041996759
"sub-025",27,"left","speed","left","left",1,0.740979317997699
"sub-025",28,"right","speed","right","left",0,2.05949774100009
"sub-025",29,"left","speed","left","left",1,0.849430707996362
"sub-025",30,"right","speed","right","right",1,0.856538627995178
"sub-025",31,"right","speed","right","right",1,1.25057622100576
"sub-025",32,"left","speed","left","left",1,0.700437460000103
"sub-025",33,"right","speed","right","right",1,1.40491230100452
"sub-025",34,"left","speed","left","left",1,0.807319243001984
"sub-025",35,"left","speed","left","left",1,0.694077988002391
"sub-025",36,"right","speed","right","right",1,0.937445253999613
"sub-025",37,"right","speed","right","right",1,3.28473859800579
"sub-025",38,"left","speed","left","left",1,0.732524840997939
"sub-025",39,"left","speed","left","left",1,1.69067566100421
"sub-025",40,"right","speed","right","right",1,2.75588523299666
"sub-025",41,"right","speed","right","left",0,0.889220315002603
"sub-025",42,"left","speed","left","left",1,0.91990656300186
"sub-025",43,"right","speed","right","right",1,0.715812767004536
"sub-025",44,"left","speed","left","left",1,0.713640922003833
"sub-025",45,"left","speed","left","left",1,0.723916949995328
"sub-025",46,"right","speed","right","right",1,0.586904563999269
"sub-025",47,"left","speed","left","left",1,0.582771547000448
"sub-025",48,"right","speed","right","right",1,0.792057890997967
"sub-025",49,"left","speed","left","left",1,0.791040587995667
"sub-025",50,"right","speed","right","right",1,3.35295166700234
"sub-025",51,"right","speed","right","right",1,0.647282636004093
"sub-025",52,"left","speed","left","right",0,0.968037632999767
"sub-025",53,"left","speed","left","left",1,2.08774750999874
"sub-025",54,"right","speed","right","right",1,0.870008875004714
"sub-025",55,"right","speed","right","right",1,2.01276263400359
"sub-025",56,"left","speed","left","left",1,1.14154461299768
"sub-025",57,"left","speed","left","left",1,0.784495693005738
"sub-025",58,"right","speed","right","right",1,0.610392073002004
"sub-025",59,"left","speed","left","left",1,0.688436727003136
"sub-025",60,"right","speed","right","right",1,0.604702844997519
"sub-025",1,"right","accuracy","right","right",1,2.96906911099359
"sub-025",2,"left","accuracy","left","left",1,1.13157542700355
"sub-025",3,"right","accuracy","right","right",1,0.902248833001067
"sub-025",4,"left","accuracy","left","left",1,2.44634898000368
"sub-025",5,"right","accuracy","right","right",1,4.96410514699528
"sub-025",6,"left","accuracy","left","left",1,1.1493439429978
"sub-025",7,"left","accuracy","left","left",1,0.783460111997556
"sub-025",8,"right","accuracy","right","left",0,1.55585191599675
"sub-025",9,"left","accuracy","left","left",1,1.2646107670007
"sub-025",10,"right","accuracy","right","right",1,0.898380299004202
"sub-025",11,"left","accuracy","left","left",1,1.20842302399979
"sub-025",12,"right","accuracy","right","left",0,1.76686316799896
"sub-025",13,"left","accuracy","left","left",1,2.41446701100358
"sub-025",14,"right","accuracy","right","left",0,2.21923612200044
"sub-025",15,"right","accuracy","right","left",0,1.52153351799643
"sub-025",16,"left","accuracy","left","left",1,4.0121911210008
"sub-025",17,"right","accuracy","right","left",0,2.11993945399445
"sub-025",18,"left","accuracy","left","left",1,5.77097129799949
"sub-025",19,"right","accuracy","right","right",1,4.55619545900117
"sub-025",20,"left","accuracy","left","left",1,1.01689470099518
"sub-025",21,"left","accuracy","left","left",1,5.68932901500375
"sub-025",22,"right","accuracy","right","right",1,4.73648858600063
"sub-025",23,"right","accuracy","right","right",1,2.01710134400491
"sub-025",24,"left","accuracy","left","left",1,2.75773124399711
"sub-025",25,"right","accuracy","right","left",0,4.25962891500239
"sub-025",26,"left","accuracy","left","left",1,5.521515679
"sub-025",27,"right","accuracy","right","left",0,6.35959421799635
"sub-025",28,"left","accuracy","left","left",1,1.87506156400195
"sub-025",29,"left","accuracy","left","left",1,4.29117113999382
"sub-025",30,"right","accuracy","right","right",1,1.07113858999946
"sub-025",31,"right","accuracy","right","right",1,3.72186786000384
"sub-025",32,"left","accuracy","left","left",1,2.42165135699906
"sub-025",33,"right","accuracy","right","right",1,0.897899891999259
"sub-025",34,"left","accuracy","left","left",1,4.6215021609969
"sub-025",35,"right","accuracy","right","right",1,5.52153254300356
"sub-025",36,"left","accuracy","left","left",1,2.57790997599659
"sub-025",37,"left","accuracy","left","left",1,3.34224149800139
"sub-025",38,"right","accuracy","right","left",0,5.77690538600291
"sub-025",39,"left","accuracy","left","right",0,4.23438416499994
"sub-025",40,"right","accuracy","right","left",0,5.49558416599757
"sub-025",41,"left","accuracy","left","left",1,2.20641529500426
"sub-025",42,"right","accuracy","right","right",1,2.88206657900446
"sub-025",43,"right","accuracy","right","left",0,3.83973529099603
"sub-025",44,"left","accuracy","left","left",1,4.23013155099761
"sub-025",45,"right","accuracy","right","left",0,5.72119254800054
"sub-025",46,"left","accuracy","left","left",1,2.29584076700121
"sub-025",47,"left","accuracy","left","left",1,5.46304861899989
"sub-025",48,"right","accuracy","right","right",1,4.17591661099868
"sub-025",49,"right","accuracy","right","right",1,4.22609855100018
"sub-025",50,"left","accuracy","left","left",1,5.44269347900263
"sub-025",51,"left","accuracy","left","left",1,5.61481068400462
"sub-025",52,"right","accuracy","right","right",1,3.22739862099843
"sub-025",53,"left","accuracy","left","left",1,1.48706059999677
"sub-025",54,"right","accuracy","right","right",1,2.81747614600317
"sub-025",55,"right","accuracy","right","right",1,1.96883970899944
"sub-025",56,"left","accuracy","left","left",1,2.65227278000384
"sub-025",57,"left","accuracy","left","right",0,1.93092225299915
"sub-025",58,"right","accuracy","right","left",0,1.69945019300212
"sub-025",59,"right","accuracy","right","right",1,1.18416432799859
"sub-025",60,"left","accuracy","left","left",1,5.79211835499882
"sub-035",1,"right","accuracy","right","left",0,5.56362108403118
"sub-035",2,"left","accuracy","left","left",1,5.61032508400967
"sub-035",3,"right","accuracy","right","right",1,5.62303470796905
"sub-035",4,"left","accuracy","left","left",1,5.71834279200993
"sub-035",5,"right","accuracy","right","right",1,6.91028929199092
"sub-035",6,"left","accuracy","left","left",1,5.75133395800367
"sub-035",7,"right","accuracy","right","right",1,6.96208124997793
"sub-035",8,"left","accuracy","left","left",1,6.09065579099115
"sub-035",9,"right","accuracy","right","right",1,7.38545475003775
"sub-035",10,"left","accuracy","left","left",1,5.70155050000176
"sub-035",11,"right","accuracy","right","right",1,5.44688979204511
"sub-035",12,"left","accuracy","left","left",1,5.42715079098707
"sub-035",13,"right","accuracy","right","left",0,5.50925104197813
"sub-035",14,"left","accuracy","left","right",0,5.77851504198043
"sub-035",15,"left","accuracy","left","left",1,5.67007620801451
"sub-035",16,"right","accuracy","right","right",1,5.70262287498917
"sub-035",17,"right","accuracy","right","left",0,5.79564433300402
"sub-035",18,"left","accuracy","left","left",1,5.43316391599365
"sub-035",19,"right","accuracy","right","right",1,5.46313416701742
"sub-035",20,"left","accuracy","left","right",0,6.13743941596476
"sub-035",21,"left","accuracy","left","right",0,6.11328987503657
"sub-035",22,"right","accuracy","right","right",1,5.67475804098649
"sub-035",23,"left","accuracy","left","left",1,5.48586770897964
"sub-035",24,"right","accuracy","right","right",1,6.36117724998621
"sub-035",25,"left","accuracy","left","left",1,5.4621679999982
"sub-035",26,"right","accuracy","right","right",1,5.40126245800639
"sub-035",27,"left","accuracy","left","left",1,5.51141391601413
"sub-035",28,"right","accuracy","right","right",1,5.56917774997419
"sub-035",29,"right","accuracy","right","left",0,5.69673583301483
"sub-035",30,"left","accuracy","left","right",0,5.61050549999345
"sub-035",31,"right","accuracy","right","left",0,5.43913154199254
"sub-035",32,"left","accuracy","left","left",1,5.46596720797243
"sub-035",33,"right","accuracy","right","right",1,5.66553862497676
"sub-035",34,"left","accuracy","left","left",1,5.64483399997698
"sub-035",35,"right","accuracy","right","left",0,6.05863433302147
"sub-035",36,"left","accuracy","left","left",1,5.3598901249934
"sub-035",37,"left","accuracy","left","right",0,5.5809262500261
"sub-035",38,"right","accuracy","right","left",0,5.6143604159588
"sub-035",39,"right","accuracy","right","left",0,5.63432833302068
"sub-035",40,"left","accuracy","left","right",0,5.38366433401825
"sub-035",41,"right","accuracy","right","left",0,6.65823058300884
"sub-035",42,"left","accuracy","left","right",0,6.02010433399118
"sub-035",43,"left","accuracy","left","left",1,5.82160937500885
"sub-035",44,"right","accuracy","right","right",1,5.72877816599794
"sub-035",45,"right","accuracy","right","left",0,5.75911520799855
"sub-035",46,"left","accuracy","left","right",0,5.70452970796032
"sub-035",47,"left","accuracy","left","right",0,6.07964058301877
"sub-035",48,"right","accuracy","right","right",1,5.34849975001998
"sub-035",49,"right","accuracy","right","left",0,5.32809033396188
"sub-035",50,"left","accuracy","left","left",1,5.45842045801692
"sub-035",51,"right","accuracy","right","left",0,5.34788879100233
"sub-035",52,"left","accuracy","left","right",0,5.3448522919789
"sub-035",53,"right","accuracy","right","right",1,5.60030670795823
"sub-035",54,"left","accuracy","left","left",1,6.39847983297659
"sub-035",55,"left","accuracy","left","right",0,5.28536629199516
"sub-035",56,"right","accuracy","right","left",0,5.42524424998555
"sub-035",57,"left","accuracy","left","right",0,6.57643966696924
"sub-035",58,"right","accuracy","right","right",1,5.76897529198322
"sub-035",59,"right","accuracy","right","left",0,5.41408066701842
"sub-035",60,"left","accuracy","left","left",1,5.80781775002833
"sub-035",1,"left","speed","left","left",1,5.32641241600504
"sub-035",2,"right","speed","right","left",0,5.32474529196043
"sub-035",3,"left","speed","left","right",0,5.35396550002042
"sub-035",4,"right","speed","right","right",1,5.22823037498165
"sub-035",5,"right","speed","right","right",1,5.33975174999796
"sub-035",6,"left","speed","left","left",1,1.68021883297479
"sub-035",7,"right","speed","right","left",0,1.50714191701263
"sub-035",8,"left","speed","left","left",1,1.73900320800021
"sub-035",9,"left","speed","left","right",0,2.24746441695606
"sub-035",10,"right","speed","right","left",0,3.01841379201505
"sub-035",11,"right","speed","right","left",0,1.19515450001927
"sub-035",12,"left","speed","left","right",0,1.00870554201538
"sub-035",13,"left","speed","left","right",0,0.815780500008259
"sub-035",14,"right","speed","right","left",0,0.919635874975938
"sub-035",15,"left","speed","left","left",1,1.87871220801026
"sub-035",16,"right","speed","right","right",1,1.4968886669958
"sub-035",17,"right","speed","right","left",0,0.877359833975788
"sub-035",18,"left","speed","left","left",1,1.16827654198278
"sub-035",19,"right","speed","right","right",1,1.21412295795744
"sub-035",20,"left","speed","left","right",0,1.82983754196903
"sub-035",21,"right","speed","right","left",0,0.937303374987096
"sub-035",22,"left","speed","left","left",1,1.51816708303522
"sub-035",23,"left","speed","left","right",0,1.14291241700994
"sub-035",24,"right","speed","right","left",0,2.55829808395356
"sub-035",25,"left","speed","left","right",0,1.96788595803082
"sub-035",26,"right","speed","right","left",0,0.816130916995462
"sub-035",27,"right","speed","right","left",0,0.717942333023529
"sub-035",28,"left","speed","left","right",0,1.05284983396996
"sub-035",29,"left","speed","left","left",1,0.708830624993425
"sub-035",30,"right","speed","right","right",1,0.8872859160183
"sub-035",31,"left","speed","left","right",0,1.34227516700048
"sub-035",32,"right","speed","right","left",0,1.36767041700659
"sub-035",33,"left","speed","left","right",0,0.777730166970287
"sub-035",34,"right","speed","right","left",0,0.904791084001772
"sub-035",35,"right","speed","right","left",0,0.850203041976783
"sub-035",36,"left","speed","left","right",0,1.65836541698081
"sub-035",37,"right","speed","right","left",0,2.20180637500016
"sub-035",38,"left","speed","left","left",1,0.680664999992587
"sub-035",39,"right","speed","right","right",1,0.674433833046351
"sub-035",40,"left","speed","left","left",1,0.747230375010986
"sub-035",41,"left","speed","left","left",1,0.857991333003156
"sub-035",42,"right","speed","right","right",1,1.00445229199249
"sub-035",43,"left","speed","left","right",0,0.954491209005937
"sub-035",44,"right","speed","right","right",1,0.809200582967605
"sub-035",45,"left","speed","left","right",0,1.75876170798438
"sub-035",46,"right","speed","right","left",0,2.21506129100453
"sub-035",47,"right","speed","right","left",0,1.14286520896712
"sub-035",48,"left","speed","left","left",1,1.01550258294446
"sub-035",49,"right","speed","right","right",1,0.860536083986517
"sub-035",50,"left","speed","left","left",1,0.708607624983415
"sub-035",51,"right","speed","right","right",1,0.740109417005442
"sub-035",52,"left","speed","left","right",0,0.886642292025499
"sub-035",53,"left","speed","left","left",1,0.697257708990946
"sub-035",54,"right","speed","right","left",0,0.764053041988518
"sub-035",55,"right","speed","right","left",0,0.714415374968667
"sub-035",56,"left","speed","left","left",1,0.980636833002791
"sub-035",57,"right","speed","right","left",0,1.78569933405379
"sub-035",58,"left","speed","left","right",0,1.48411866603419
"sub-035",59,"left","speed","left","right",0,0.81589220900787
"sub-035",60,"right","speed","right","right",1,0.819123082968872
"sub-040",1,"right","speed","right","right",1,1.29019945799519
"sub-040",2,"left","speed","left","left",1,0.792105458000151
"sub-040",3,"left","speed","left","right",0,1.49097441599588
"sub-040",4,"right","speed","right","right",1,1.3835007489979
"sub-040",5,"left","speed","left","left",1,0.514436206998653
"sub-040",6,"right","speed","right","right",1,1.076765040998
"sub-040",7,"right","speed","right","left",0,2.00533216600161
"sub-040",8,"left","speed","left","right",0,1.23536391599919
"sub-040",9,"right","speed","right","left",0,1.62185274899821
"sub-040",10,"left","speed","left","right",0,1.78714491600113
"sub-040",11,"right","speed","right","right",1,1.23807433299953
"sub-040",12,"left","speed","left","left",1,1.28027749899775
"sub-040",13,"right","speed","right","right",1,1.59632375000365
"sub-040",14,"left","speed","left","left",1,0.778173124999739
"sub-040",15,"right","speed","right","left",0,1.59312166600284
"sub-040",16,"left","speed","left","right",0,1.20428541600268
"sub-040",17,"left","speed","left","right",0,1.45473433299776
"sub-040",18,"right","speed","right","left",0,2.07570866600145
"sub-040",19,"right","speed","right","right",1,1.42706549899594
"sub-040",20,"left","speed","left","left",1,1.88557608300471
"sub-040",21,"right","speed","right","right",1,1.14355287500075
"sub-040",22,"left","speed","left","right",0,1.26054366599419
"sub-040",23,"right","speed","right","right",1,3.2136544160021
"sub-040",24,"left","speed","left","left",1,0.692493665999791
"sub-040",25,"right","speed","right","right",1,1.01736087400059
"sub-040",26,"left","speed","left","right",0,2.27170220699918
"sub-040",27,"right","speed","right","left",0,0.928730874002213
"sub-040",28,"left","speed","left","right",0,1.17771174900554
"sub-040",29,"right","speed","right","left",0,1.35978737400001
"sub-040",30,"left","speed","left","left",1,1.1954550829978
"sub-040",31,"left","speed","left","right",0,1.25884345699887
"sub-040",32,"right","speed","right","right",1,1.53462262500398
"sub-040",33,"right","speed","right","left",0,1.14292624899826
"sub-040",34,"left","speed","left","right",0,1.18783637399611
"sub-040",35,"left","speed","left","left",1,1.17647529099486
"sub-040",36,"right","speed","right","right",1,1.01755099900038
"sub-040",37,"right","speed","right","right",1,0.874746458001027
"sub-040",38,"left","speed","left","left",1,0.957649290998234
"sub-040",39,"left","speed","left","right",0,1.34236950000195
"sub-040",40,"right","speed","right","right",1,1.23271699900215
"sub-040",41,"right","speed","right","left",0,1.60232387499855
"sub-040",42,"left","speed","left","right",0,1.27184887400654
"sub-040",43,"right","speed","right","left",0,1.7680193740016
"sub-040",44,"left","speed","left","right",0,1.83745545700367
"sub-040",45,"left","speed","left","right",0,1.30029500000092
"sub-040",46,"right","speed","right","right",1,1.79239820799557
"sub-040",47,"right","speed","right","right",1,1.80197479100025
"sub-040",48,"left","speed","left","left",1,0.892052041002898
"sub-040",49,"right","speed","right","right",1,0.752726498998527
"sub-040",50,"left","speed","left","left",1,0.650668165995739
"sub-040",51,"left","speed","left","right",0,0.789565707003931
"sub-040",52,"right","speed","right","right",1,0.808122707996517
"sub-040",53,"left","speed","left","right",0,0.846778166000149
"sub-040",54,"right","speed","right","left",0,0.809067166002933
"sub-040",55,"right","speed","right","right",1,0.922146248994977
"sub-040",56,"left","speed","left","right",0,0.984629915998084
"sub-040",57,"left","speed","left","right",0,1.02782733200002
"sub-040",58,"right","speed","right","right",1,1.61990754100407
"sub-040",59,"left","speed","left","left",1,0.555394208000507
"sub-040",60,"right","speed","right","right",1,0.791433707003307
"sub-040",1,"right","accuracy","right","right",1,1.1645003329977
"sub-040",2,"left","accuracy","left","left",1,1.55473466599506
"sub-040",3,"left","accuracy","left","right",0,1.50893808300316
"sub-040",4,"right","accuracy","right","right",1,1.63102420700307
"sub-040",5,"right","accuracy","right","right",1,1.28030191599828
"sub-040",6,"left","accuracy","left","right",0,1.29033333300322
"sub-040",7,"left","accuracy","left","left",1,1.32535358300083
"sub-040",8,"right","accuracy","right","right",1,1.21636774900253
"sub-040",9,"right","accuracy","right","right",1,1.21374691600067
"sub-040",10,"left","accuracy","left","right",0,1.84705070800555
"sub-040",11,"right","accuracy","right","left",0,2.07158887400146
"sub-040",12,"left","accuracy","left","right",0,1.91283524899336
"sub-040",13,"left","accuracy","left","right",0,1.42132691599545
"sub-040",14,"right","accuracy","right","left",0,1.20514866599842
"sub-040",15,"left","accuracy","left","left",1,1.68100870699709
"sub-040",16,"right","accuracy","right","right",1,1.53306862399768
"sub-040",17,"left","accuracy","left","left",1,1.26972833299806
"sub-040",18,"right","accuracy","right","right",1,1.11814745700394
"sub-040",19,"left","accuracy","left","right",0,1.48335333299474
"sub-040",20,"right","accuracy","right","left",0,0.993795415997738
"sub-040",21,"right","accuracy","right","right",1,0.920050790999085
"sub-040",22,"left","accuracy","left","left",1,1.35458654099784
"sub-040",23,"left","accuracy","left","right",0,1.15828799900191
"sub-040",24,"right","accuracy","right","right",1,0.826379373997042
"sub-040",25,"left","accuracy","left","right",0,1.11729904099775
"sub-040",26,"right","accuracy","right","right",1,1.13162891600223
"sub-040",27,"left","accuracy","left","left",1,1.31377091600007
"sub-040",28,"right","accuracy","right","left",0,1.58416779099935
"sub-040",29,"right","accuracy","right","left",0,1.21173074899707
"sub-040",30,"left","accuracy","left","right",0,1.42368945700582
"sub-040",31,"right","accuracy","right","left",0,1.58957637500134
"sub-040",32,"left","accuracy","left","right",0,1.13963670799421
"sub-040",33,"right","accuracy","right","right",1,1.15321424900321
"sub-040",34,"left","accuracy","left","left",1,1.53605466600129
"sub-040",35,"right","accuracy","right","right",1,1.41367287400499
"sub-040",36,"left","accuracy","left","left",1,1.67906395800674
"sub-040",37,"right","accuracy","right","right",1,1.60751858299773
"sub-040",38,"left","accuracy","left","right",0,1.61181895800109
"sub-040",39,"right","accuracy","right","right",1,0.940555541004869
"sub-040",40,"left","accuracy","left","left",1,1.08415849999437
"sub-040",41,"left","accuracy","left","right",0,1.8373110409957
"sub-040",42,"right","accuracy","right","right",1,2.04822174899891
"sub-040",43,"left","accuracy","left","right",0,2.43605466599547
"sub-040",44,"right","accuracy","right","right",1,1.96717258300487
"sub-040",45,"right","accuracy","right","left",0,1.66681116599648
"sub-040",46,"left","accuracy","left","left",1,2.441138082002
"sub-040",47,"right","accuracy","right","right",1,2.30759733299783
"sub-040",48,"left","accuracy","left","left",1,2.56780995800364
"sub-040",49,"right","accuracy","right","right",1,2.40040333200159
"sub-040",50,"left","accuracy","left","right",0,2.76444529100263
"sub-040",51,"left","accuracy","left","right",0,1.87327512499905
"sub-040",52,"right","accuracy","right","left",0,2.47139558199706
"sub-040",53,"right","accuracy","right","right",1,1.58505562500068
"sub-040",54,"left","accuracy","left","left",1,2.07623591599986
"sub-040",55,"right","accuracy","right","right",1,2.56966545799514
"sub-040",56,"left","accuracy","left","right",0,2.14663166599348
"sub-040",57,"right","accuracy","right","right",1,3.29022329099826
"sub-040",58,"left","accuracy","left","left",1,1.68015354099771
"sub-040",59,"left","accuracy","left","left",1,1.77394879100029
