"id","trial","direction","condition","corrAns","resp","corr","rt"
"sub-007",1,"right","speed","right","right",1,0.653702184004942
"sub-007",2,"left","speed","left","right",0,0.582185796985868
"sub-007",3,"left","speed","left","left",1,1.38683706297888
"sub-007",4,"right","speed","right","right",1,0.955037053994602
"sub-007",5,"left","speed","left","right",0,0.499012704996858
"sub-007",6,"right","speed","right","left",0,0.692695937003009
"sub-007",7,"left","speed","left","left",1,1.49113630902139
"sub-007",8,"right","speed","right","right",1,1.04961009102408
"sub-007",9,"left","speed","left","right",0,0.690777653013356
"sub-007",10,"right","speed","right","left",0,0.793062126002042
"sub-007",11,"right","speed","right","left",0,0.826860981993377
"sub-007",12,"left","speed","left","left",1,0.645988468982978
"sub-007",13,"right","speed","right","right",1,0.633164692000719
"sub-007",14,"left","speed","left","left",1,2.01240973698441
"sub-007",15,"right","speed","right","right",1,1.5446416180057
"sub-007",16,"left","speed","left","left",1,0.66791764300433
"sub-007",17,"left","speed","left","right",0,0.49759398799506
"sub-007",18,"right","speed","right","left",0,0.651215924997814
"sub-007",19,"left","speed","left","left",1,0.54309178199037
"sub-007",20,"right","speed","right","right",1,0.556620155985001
"sub-007",21,"left","speed","left","left",1,0.482719046995044
"sub-007",22,"right","speed","right","left",0,0.866801256983308
"sub-007",23,"right","speed","right","right",1,0.734800724982051
"sub-007",24,"left","speed","left","left",1,0.981428858009167
"sub-007",25,"right","speed","right","left",0,3.01500572101213
"sub-007",26,"left","speed","left","right",0,0.5192105419992
"sub-007",27,"left","speed","left","left",1,0.684477825998329
"sub-007",28,"right","speed","right","right",1,0.592772817995865
"sub-007",29,"left","speed","left","left",1,0.540998706012033
"sub-007",30,"right","speed","right","right",1,1.14444608500344
"sub-007",31,"left","speed","left","right",0,1.1182322090026
"sub-007",32,"right","speed","right","right",1,1.25441913600662
"sub-007",33,"right","speed","right","right",1,1.00140825900598
"sub-007",34,"left","speed","left","left",1,0.597766877006507
"sub-007",35,"right","speed","right","right",1,2.47431287300424
"sub-007",36,"left","speed","left","left",1,0.642220592009835
"sub-007",37,"left","speed","left","left",1,0.921200895012589
"sub-007",38,"right","speed","right","right",1,0.727403121010866
"sub-007",39,"left","speed","left","left",1,0.811052367003867
"sub-007",40,"right","speed","right","right",1,1.22109574198839
"sub-007",41,"right","speed","right","left",0,2.2658919460082
"sub-007",42,"left","speed","left","right",0,0.868154410010902
"sub-007",43,"left","speed","left","right",0,0.808670188009273
"sub-007",44,"right","speed","right","right",1,1.11031086900039
"sub-007",45,"left","speed","left","left",1,0.531891815015115
"sub-007",46,"right","speed","right","left",0,0.699613907985622
"sub-007",47,"left","speed","left","right",0,0.614715497998986
"sub-007",48,"right","speed","right","right",1,0.805975010007387
"sub-007",49,"right","speed","right","left",0,0.533303417993011
"sub-007",50,"left","speed","left","left",1,0.713745629996993
"sub-007",51,"left","speed","left","left",1,1.37226241998724
"sub-007",52,"right","speed","right","left",0,1.08692457800498
"sub-007",53,"left","speed","left","right",0,0.723483267996926
"sub-007",54,"right","speed","right","right",1,1.45105308300117
"sub-007",55,"left","speed","left","left",1,0.678455851011677
"sub-007",56,"right","speed","right","right",1,0.847352090000641
"sub-007",57,"left","speed","left","left",1,0.727591281989589
"sub-007",58,"right","speed","right","right",1,0.669435082003474
"sub-007",59,"left","speed","left","left",1,0.700507939007366
"sub-007",60,"right","speed","right","right",1,1.62527110398514
"sub-007",1,"left","accuracy","left","left",1,3.20253832699382
"sub-007",2,"right","accuracy","right","right",1,2.42907254400779
"sub-007",3,"left","accuracy","left","left",1,2.3741522480268
"sub-007",4,"right","accuracy","right","right",1,0.903776857012417
"sub-007",5,"left","accuracy","left","left",1,1.60178874499979
"sub-007",6,"right","accuracy","right","right",1,1.05315075500403
"sub-007",7,"right","accuracy","right","right",1,0.59169536299305
"sub-007",8,"left","accuracy","left","right",0,0.688827202015091
"sub-007",9,"left","accuracy","left","right",0,1.11094832100207
"sub-007",10,"right","accuracy","right","left",0,2.46708198799752
"sub-007",11,"left","accuracy","left","left",1,1.12236899699201
"sub-007",12,"right","accuracy","right","right",1,2.17497823099256
"sub-007",13,"left","accuracy","left","left",1,0.760700985003496
"sub-007",14,"right","accuracy","right","right",1,0.464549559022998
"sub-007",15,"right","accuracy","right","left",0,0.528865086991573
"sub-007",16,"left","accuracy","left","right",0,0.745174764015246
"sub-007",17,"left","accuracy","left","right",0,0.80906327298726
"sub-007",18,"right","accuracy","right","right",1,0.783103879977716
"sub-007",19,"left","accuracy","left","left",1,0.828258284978801
"sub-007",20,"right","accuracy","right","right",1,1.16931571799796
"sub-007",21,"right","accuracy","right","right",1,0.778790004987968
"sub-007",22,"left","accuracy","left","left",1,0.635593277023872
"sub-007",23,"right","accuracy","right","left",0,0.778476703009801
"sub-007",24,"left","accuracy","left","right",0,0.752165522018913
"sub-007",25,"right","accuracy","right","right",1,1.08179215699784
"sub-007",26,"left","accuracy","left","left",1,0.728927620017203
"sub-007",27,"left","accuracy","left","right",0,0.641003390977858
"sub-007",28,"right","accuracy","right","right",1,1.388255672995
"sub-007",29,"right","accuracy","right","right",1,2.89718109698151
"sub-007",30,"left","accuracy","left","left",1,0.72191637699143
"sub-007",31,"left","accuracy","left","left",1,1.93180503000622
"sub-007",32,"right","accuracy","right","right",1,0.760115130018676
"sub-007",33,"right","accuracy","right","right",1,1.11376074401778
"sub-007",34,"left","accuracy","left","left",1,0.998034304997418
"sub-007",35,"left","accuracy","left","left",1,1.0802933749801
"sub-007",36,"right","accuracy","right","left",0,0.665120858990122
"sub-007",37,"right","accuracy","right","left",0,0.918276794982376
"sub-007",38,"left","accuracy","left","right",0,0.736897949012928
"sub-007",39,"right","accuracy","right","left",0,0.660746515000938
"sub-007",40,"left","accuracy","left","left",1,0.77087768597994
"sub-007",41,"right","accuracy","right","right",1,0.644622527994215
"sub-007",42,"left","accuracy","left","left",1,0.698425273993053
"sub-007",43,"right","accuracy","right","left",0,1.26995168300346
"sub-007",44,"left","accuracy","left","left",1,0.754795821994776
"sub-007",45,"right","accuracy","right","right",1,0.814657156006433
"sub-007",46,"left","accuracy","left","left",1,0.7368469699868
"sub-007",47,"right","accuracy","right","right",1,0.691123775002779
"sub-007",48,"left","accuracy","left","left",1,1.50093916399055
"sub-007",49,"left","accuracy","left","left",1,1.39507090800907
"sub-007",50,"right","accuracy","right","left",0,0.931093757011695
"sub-007",51,"right","accuracy","right","right",1,1.28802526497748
"sub-007",52,"left","accuracy","left","right",0,1.81951521898736
"sub-007",53,"left","accuracy","left","right",0,1.44935832801275
"sub-007",54,"right","accuracy","right","left",0,1.43031167201116
"sub-007",55,"right","accuracy","right","right",1,3.6393063889991
"sub-007",56,"left","accuracy","left","left",1,1.34494954900583
"sub-007",57,"left","accuracy","left","left",1,1.15890724898782
"sub-007",58,"right","accuracy","right","right",1,0.988665112003218
"sub-007",59,"right","accuracy","right","left",0,3.96716987699619
"sub-007",60,"left","accuracy","left","left",1,1.55518705901341
"sub-010",1,"left","accuracy","left","left",1,1.15697604099842
"sub-010",2,"right","accuracy","right","right",1,0.577911207998113
"sub-010",3,"right","accuracy","right","right",1,0.75199249999423
"sub-010",4,"left","accuracy","left","left",1,0.623700000003737
"sub-010",5,"left","accuracy","left","left",1,1.14161991699802
"sub-010",6,"right","accuracy","right","right",1,0.577419416993507
"sub-010",7,"right","accuracy","right","right",1,2.61629312500008
"sub-010",8,"left","accuracy","left","left",1,0.687952249994851
"sub-010",9,"right","accuracy","right","right",1,0.658871125000587
"sub-010",10,"left","accuracy","left","left",1,0.646577666004305
"sub-010",11,"left","accuracy","left","left",1,1.85639645800256
"sub-010",12,"right","accuracy","right","right",1,0.667708084001788
"sub-010",13,"right","accuracy","right","right",1,1.35109195800032
"sub-010",14,"left","accuracy","left","left",1,1.41691333299968
"sub-010",15,"left","accuracy","left","left",1,1.04523137499928
"sub-010",16,"right","accuracy","right","right",1,0.684013457997935
"sub-010",17,"right","accuracy","right","right",1,1.56391870899824
"sub-010",18,"left","accuracy","left","left",1,0.695726291000028
"sub-010",19,"right","accuracy","right","right",1,1.57907429100305
"sub-010",20,"left","accuracy","left","left",1,0.715864541998599
"sub-010",21,"right","accuracy","right","right",1,1.53490845899796
"sub-010",22,"left","accuracy","left","left",1,0.816695041998173
"sub-010",23,"left","accuracy","left","left",1,0.71694587499951
"sub-010",24,"right","accuracy","right","right",1,1.04080683299981
"sub-010",25,"right","accuracy","right","right",1,1.61053350000293
"sub-010",26,"left","accuracy","left","left",1,0.685439749999205
"sub-010",27,"left","accuracy","left","left",1,1.64150120900013
"sub-010",28,"right","accuracy","right","right",1,0.667966333006916
"sub-010",29,"left","accuracy","left","left",1,0.775783334000153
"sub-010",30,"right","accuracy","right","right",1,0.709403166001721
"sub-010",31,"right","accuracy","right","right",1,1.09159758299938
"sub-010",32,"left","accuracy","left","left",1,0.601010749996931
"sub-010",33,"right","accuracy","right","right",1,0.666351167004905
"sub-010",34,"left","accuracy","left","left",1,0.699671334004961
"sub-010",35,"right","accuracy","right","right",1,1.33515629199974
"sub-010",36,"left","accuracy","left","left",1,0.620285584001977
"sub-010",37,"right","accuracy","right","right",1,0.720052208002016
"sub-010",38,"left","accuracy","left","left",1,0.729678625000815
"sub-010",39,"left","accuracy","left","left",1,1.76673412499804
"sub-010",40,"right","accuracy","right","right",1,1.4146093330055
"sub-010",41,"left","accuracy","left","left",1,1.14310645800288
"sub-010",42,"right","accuracy","right","right",1,0.806194832999608
"sub-010",43,"right","accuracy","right","right",1,1.50698795900098
"sub-010",44,"left","accuracy","left","left",1,0.857460708000872
"sub-010",45,"right","accuracy","right","right",1,0.815706916000636
"sub-010",46,"left","accuracy","left","left",1,0.690279082999041
"sub-010",47,"right","accuracy","right","right",1,1.16713887500373
"sub-010",48,"left","accuracy","left","left",1,0.691325583000435
"sub-010",49,"right","accuracy","right","right",1,1.41488775000471
"sub-010",50,"left","accuracy","left","left",1,0.869585292006377
"sub-010",51,"right","accuracy","right","right",1,1.3163062080057
"sub-010",52,"left","accuracy","left","left",1,0.580214249996061
"sub-010",53,"left","accuracy","left","left",1,0.778588041001058
"sub-010",54,"right","accuracy","right","right",1,0.770810624999285
"sub-010",55,"left","accuracy","left","left",1,1.19083420899551
"sub-010",56,"right","accuracy","right","right",1,0.71735500000068
"sub-010",57,"right","accuracy","right","right",1,1.33307804099604
"sub-010",58,"left","accuracy","left","left",1,1.16128929200204
"sub-010",59,"right","accuracy","right","right",1,1.00313358400308
"sub-010",60,"left","accuracy","left","left",1,1.08353841699864
"sub-010",1,"left","speed","left","left",1,0.648995374998776
"sub-010",2,"right","speed","right","right",1,0.573302458004036
"sub-010",3,"left","speed","left","left",1,0.58302654200088
"sub-010",4,"right","speed","right","right",1,0.616665165995073
"sub-010",5,"left","speed","left","left",1,0.658454749995144
"sub-010",6,"right","speed","right","right",1,0.559519832997466
"sub-010",7,"left","speed","left","left",1,0.513173958002881
"sub-010",8,"right","speed","right","right",1,0.809916332997091
"sub-010",9,"left","speed","left","left",1,0.545942749995447
"sub-010",10,"right","speed","right","right",1,0.608565665999777
"sub-010",11,"left","speed","left","left",1,0.623576457997842
"sub-010",12,"right","speed","right","right",1,0.646297833001881
"sub-010",13,"right","speed","right","right",1,0.72472379199462
"sub-010",14,"left","speed","left","left",1,0.567857750000258
"sub-010",15,"right","speed","right","right",1,0.72375791700324
"sub-010",16,"left","speed","left","left",1,0.807846458003041
"sub-010",17,"left","speed","left","left",1,0.497307290999743
"sub-010",18,"right","speed","right","right",1,0.568700165997143
"sub-010",19,"left","speed","left","left",1,0.606313875003252
"sub-010",20,"right","speed","right","right",1,0.767054167001334
"sub-010",21,"left","speed","left","left",1,0.499691541001084
"sub-010",22,"right","speed","right","right",1,0.588943458002177
"sub-010",23,"left","speed","left","left",1,0.466874625002674
"sub-010",24,"right","speed","right","right",1,0.852563832995656
"sub-010",25,"right","speed","right","right",1,0.617034167000384
"sub-010",26,"left","speed","left","left",1,0.482602291005605
"sub-010",27,"right","speed","right","right",1,0.536699457996292
"sub-010",28,"left","speed","left","left",1,0.420480249995307
"sub-010",29,"right","speed","right","right",1,0.601165834006679
"sub-010",30,"left","speed","left","left",1,0.612523582996801
"sub-010",31,"left","speed","left","left",1,0.657188791999943
"sub-010",32,"right","speed","right","right",1,0.772390125006496
"sub-010",33,"right","speed","right","right",1,0.811103625004762
"sub-010",34,"left","speed","left","left",1,0.507055834001221
"sub-010",35,"left","speed","left","left",1,0.6172059169985
"sub-010",36,"right","speed","right","right",1,1.00401237500046
"sub-010",37,"left","speed","left","left",1,0.774426333999145
"sub-010",38,"right","speed","right","right",1,0.573630665996461
"sub-010",39,"left","speed","left","left",1,1.07431395899766
"sub-010",40,"right","speed","right","right",1,0.623920874997566
"sub-010",41,"left","speed","left","left",1,0.593138416996226
"sub-010",42,"right","speed","right","right",1,0.61329066700273
"sub-010",43,"left","speed","left","left",1,0.499979375003022
"sub-010",44,"right","speed","right","right",1,0.916171290999046
"sub-010",45,"right","speed","right","right",1,0.647794541997428
"sub-010",46,"left","speed","left","left",1,0.565873209001438
"sub-010",47,"left","speed","left","left",1,0.925501708006777
"sub-010",48,"right","speed","right","right",1,0.473701750001055
"sub-010",49,"right","speed","right","right",1,0.573351166000066
"sub-010",50,"left","speed","left","left",1,0.506489457999123
"sub-010",51,"right","speed","right","right",1,0.642087958003685
"sub-010",52,"left","speed","left","left",1,0.470533250001608
"sub-010",53,"right","speed","right","right",1,0.626295957998082
"sub-010",54,"left","speed","left","left",1,0.533165958993777
"sub-010",55,"left","speed","left","left",1,0.580652374999772
"sub-010",56,"right","speed","right","right",1,0.696102624999185
"sub-010",57,"right","speed","right","right",1,0.742802708999079
"sub-010",58,"left","speed","left","left",1,0.538593333003519
"sub-010",59,"right","speed","right","right",1,0.662001958000474
"sub-010",60,"left","speed","left","left",1,0.635729374997027
"sub-011",1,"right","accuracy","right","right",1,1.3711006659978
"sub-011",2,"left","accuracy","left","left",1,2.65922583299835
"sub-011",3,"right","accuracy","right","right",1,2.53305954100142
"sub-011",4,"left","accuracy","left","left",1,0.43567987500137
"sub-011",5,"left","accuracy","left","right",0,3.79218750000291
"sub-011",6,"right","accuracy","right","left",0,2.97114808400147
"sub-011",7,"right","accuracy","right","right",1,1.04203004200099
"sub-011",8,"left","accuracy","left","left",1,0.826878542000486
"sub-011",9,"right","accuracy","right","right",1,0.692102542001521
"sub-011",10,"left","accuracy","left","left",1,0.576209584000026
"sub-011",11,"left","accuracy","left","right",0,2.90719854199779
"sub-011",12,"right","accuracy","right","right",1,1.73504366699854
"sub-011",13,"left","accuracy","left","left",1,0.611740500000451
"sub-011",14,"right","accuracy","right","right",1,0.740314165999735
"sub-011",15,"left","accuracy","left","left",1,0.64394404199993
"sub-011",16,"right","accuracy","right","right",1,0.610294707999856
"sub-011",17,"left","accuracy","left","left",1,0.623682833000203
"sub-011",18,"right","accuracy","right","right",1,0.545311334000871
"sub-011",19,"left","accuracy","left","left",1,0.475175999999919
"sub-011",20,"right","accuracy","right","right",1,0.479390832999343
"sub-011",21,"right","accuracy","right","right",1,0.534500999998272
"sub-011",22,"left","accuracy","left","left",1,0.472077791000629
"sub-011",23,"left","accuracy","left","left",1,0.640542917000857
"sub-011",24,"right","accuracy","right","right",1,0.757618332998391
"sub-011",25,"right","accuracy","right","right",1,2.15178779100097
"sub-011",26,"left","accuracy","left","left",1,0.541575082999771
"sub-011",27,"right","accuracy","right","right",1,0.582432166000217
"sub-011",28,"left","accuracy","left","left",1,0.462194499999896
"sub-011",29,"right","accuracy","right","right",1,0.500882917000126
"sub-011",30,"left","accuracy","left","right",0,2.88795779200154
"sub-011",31,"right","accuracy","right","right",1,1.37019566599702
"sub-011",32,"left","accuracy","left","left",1,0.457152041999507
"sub-011",33,"left","accuracy","left","left",1,1.27537187500275
"sub-011",34,"right","accuracy","right","right",1,2.21373333300289
"sub-011",35,"right","accuracy","right","right",1,2.16906645800191
"sub-011",36,"left","accuracy","left","left",1,1.8140035840006
"sub-011",37,"right","accuracy","right","right",1,0.877717667000979
"sub-011",38,"left","accuracy","left","left",1,1.21732308300125
"sub-011",39,"left","accuracy","left","right",0,2.90205662500011
"sub-011",40,"right","accuracy","right","right",1,1.99452945799931
"sub-011",41,"left","accuracy","left","left",1,1.46132524999848
"sub-011",42,"right","accuracy","right","right",1,0.907547291997616
"sub-011",43,"right","accuracy","right","right",1,0.918657707999955
"sub-011",44,"left","accuracy","left","left",1,0.781932709000102
"sub-011",45,"right","accuracy","right","right",1,0.880730959001085
"sub-011",46,"left","accuracy","left","left",1,0.789697708001768
"sub-011",47,"right","accuracy","right","right",1,0.786338624999189
"sub-011",48,"left","accuracy","left","left",1,0.784676415998547
"sub-011",49,"left","accuracy","left","left",1,2.02975333300128
"sub-011",50,"right","accuracy","right","right",1,2.44093995900039
"sub-011",51,"left","accuracy","left","left",1,0.751202082999953
"sub-011",52,"right","accuracy","right","right",1,0.860062165997078
"sub-011",53,"left","accuracy","left","left",1,0.938051165998331
"sub-011",54,"right","accuracy","right","right",1,0.705323124999268
"sub-011",55,"right","accuracy","right","right",1,1.75756683300278
"sub-011",56,"left","accuracy","left","left",1,0.91901295900243
"sub-011",57,"right","accuracy","right","right",1,1.38995500000237
"sub-011",58,"left","accuracy","left","left",1,1.42441233300269
"sub-011",59,"right","accuracy","right","right",1,2.95081645800019
"sub-011",60,"left","accuracy","left","left",1,1.20246070800204
"sub-011",1,"right","speed","right","right",1,0.469695916999626
"sub-011",2,"left","speed","left","left",1,0.352859875001741
"sub-011",3,"left","speed","left","left",1,0.528550458002428
"sub-011",4,"right","speed","right","right",1,0.50824854199891
"sub-011",5,"right","speed","right","left",0,0.624127750001207
"sub-011",6,"left","speed","left","left",1,0.491351792003115
"sub-011",7,"right","speed","right","right",1,0.501433749999705
"sub-011",8,"left","speed","left","left",1,0.459383708999667
"sub-011",9,"right","speed","right","right",1,0.490387708003254
"sub-011",10,"left","speed","left","left",1,0.434907750001003
"sub-011",11,"left","speed","left","right",0,0.30804579100004
"sub-011",12,"right","speed","right","right",1,0.435533750001923
"sub-011",13,"right","speed","right","right",1,0.527454582999781
"sub-011",14,"left","speed","left","left",1,0.413426208000601
"sub-011",15,"left","speed","left","left",1,0.376371708000079
"sub-011",16,"right","speed","right","right",1,0.463100667002436
"sub-011",17,"left","speed","left","left",1,0.418734915998357
"sub-011",18,"right","speed","right","right",1,0.420779916999891
"sub-011",19,"left","speed","left","left",1,0.494152374998521
"sub-011",20,"right","speed","right","right",1,0.793473916997755
"sub-011",21,"left","speed","left","left",1,0.919515665998915
"sub-011",22,"right","speed","right","right",1,0.505284417002258
"sub-011",23,"right","speed","right","right",1,1.22181116600041
"sub-011",24,"left","speed","left","right",0,0.532894416002819
"sub-011",25,"left","speed","left","left",1,0.449628125003073
"sub-011",26,"right","speed","right","right",1,0.537039209000795
"sub-011",27,"left","speed","left","left",1,0.767150958999991
"sub-011",28,"right","speed","right","right",1,0.440080000000307
"sub-011",29,"left","speed","left","right",0,0.873698750001495
"sub-011",30,"right","speed","right","right",1,0.582375207999576
"sub-011",31,"left","speed","left","left",1,0.562505334000889
"sub-011",32,"right","speed","right","right",1,0.559898625000642
"sub-011",33,"left","speed","left","left",1,0.456136250002601
"sub-011",34,"right","speed","right","right",1,0.392129791998741
"sub-011",35,"right","speed","right","right",1,0.475797708997561
"sub-011",36,"left","speed","left","left",1,1.6142034580007
"sub-011",37,"left","speed","left","left",1,0.882355333000305
"sub-011",38,"right","speed","right","right",1,0.528686665998976
"sub-011",39,"left","speed","left","left",1,0.301848625000275
"sub-011",40,"right","speed","right","right",1,0.416106542001216
"sub-011",41,"right","speed","right","right",1,0.607003500001156
"sub-011",42,"left","speed","left","left",1,0.452395834003255
"sub-011",43,"right","speed","right","right",1,0.410857333001331
"sub-011",44,"left","speed","left","left",1,0.405848291000439
"sub-011",45,"right","speed","right","right",1,0.508302166999783
"sub-011",46,"left","speed","left","left",1,0.428649959001632
"sub-011",47,"left","speed","left","left",1,0.51502920799976
"sub-011",48,"right","speed","right","right",1,0.523523708001449
"sub-011",49,"left","speed","left","left",1,0.390188875000604
"sub-011",50,"right","speed","right","right",1,0.40590924999924
"sub-011",51,"left","speed","left","left",1,0.395109207998757
"sub-011",52,"right","speed","right","right",1,0.43990174999999
"sub-011",53,"right","speed","right","right",1,0.406401083000674
"sub-011",54,"left","speed","left","left",1,0.346774666999409
"sub-011",55,"right","speed","right","right",1,0.442779790999339
"sub-011",56,"left","speed","left","right",0,0.983944041003269
"sub-011",57,"right","speed","right","left",0,0.348160083998664
"sub-011",58,"left","speed","left","left",1,0.609213167001144
"sub-011",59,"left","speed","left","left",1,0.535109708998789
"sub-011",60,"right","speed","right","right",1,0.411681292000139
"sub-012",1,"right","speed","right","right",1,1.48891645800904
"sub-012",2,"left","speed","left","left",1,0.532754750005552
"sub-012",3,"left","speed","left","left",1,0.659380249999231
"sub-012",4,"right","speed","right","right",1,1.14081395800167
"sub-012",5,"left","speed","left","left",1,1.11800149999908
"sub-012",6,"right","speed","right","left",0,0.941995791989029
"sub-012",7,"right","speed","right","right",1,1.10224395799742
"sub-012",8,"left","speed","left","left",1,0.607289457999286
"sub-012",9,"right","speed","right","right",1,0.654044875002
"sub-012",10,"left","speed","left","left",1,0.846845416992437
"sub-012",11,"right","speed","right","right",1,0.722966666013235
"sub-012",12,"left","speed","left","left",1,0.499533459005761
"sub-012",13,"right","speed","right","right",1,0.512025582997012
"sub-012",14,"left","speed","left","left",1,0.54635629200493
"sub-012",15,"right","speed","right","right",1,0.500116292008897
"sub-012",16,"left","speed","left","left",1,0.539065290999133
"sub-012",17,"right","speed","right","right",1,0.42884433400468
"sub-012",18,"left","speed","left","left",1,0.506799208000302
"sub-012",19,"right","speed","right","right",1,0.590747666996322
"sub-012",20,"left","speed","left","left",1,0.530163667004672
"sub-012",21,"right","speed","right","right",1,0.735343708001892
"sub-012",22,"left","speed","left","left",1,0.431121708999854
"sub-012",23,"left","speed","left","left",1,0.540321583001059
"sub-012",24,"right","speed","right","right",1,0.383370541996555
"sub-012",25,"right","speed","right","right",1,0.755783250002423
"sub-012",26,"left","speed","left","left",1,0.390238292005961
"sub-012",27,"right","speed","right","right",1,0.466916207995382
"sub-012",28,"left","speed","left","left",1,0.366247375000967
"sub-012",29,"right","speed","right","right",1,0.409555790989543
"sub-012",30,"left","speed","left","left",1,0.484815666000941
"sub-012",31,"left","speed","left","left",1,0.67293441700167
"sub-012",32,"right","speed","right","right",1,0.372156583005562
"sub-012",33,"right","speed","right","right",1,0.796263417010778
"sub-012",34,"left","speed","left","left",1,0.406928875003359
"sub-012",35,"left","speed","left","left",1,0.890164333002758
"sub-012",36,"right","speed","right","right",1,0.52633095899364
"sub-012",37,"right","speed","right","right",1,0.489448874999653
"sub-012",38,"left","speed","left","left",1,0.399846750005963
"sub-012",39,"right","speed","right","right",1,0.564988833008101
"sub-012",40,"left","speed","left","left",1,0.56846266699722
"sub-012",41,"right","speed","right","right",1,0.629196916997898
"sub-012",42,"left","speed","left","left",1,0.388631750000059
"sub-012",43,"left","speed","left","left",1,0.830662166001275
"sub-012",44,"right","speed","right","right",1,0.767260084001464
"sub-012",45,"right","speed","right","right",1,0.725176040999941
"sub-012",46,"left","speed","left","left",1,0.464643416999024
"sub-012",47,"right","speed","right","right",1,0.486711290999665
"sub-012",48,"left","speed","left","left",1,0.856056499993429
"sub-012",49,"left","speed","left","left",1,0.973316457995679
"sub-012",50,"right","speed","right","right",1,1.62767254200298
"sub-012",51,"right","speed","right","right",1,1.86757858400233
"sub-012",52,"left","speed","left","left",1,0.46069529200031
"sub-012",53,"right","speed","right","right",1,0.51240287499968
"sub-012",54,"left","speed","left","left",1,0.513235291000456
"sub-012",55,"right","speed","right","right",1,0.453127208995284
"sub-012",56,"left","speed","left","left",1,0.489347499998985
"sub-012",57,"right","speed","right","right",1,0.490987040990149
"sub-012",58,"left","speed","left","left",1,0.478575540997554
"sub-012",59,"right","speed","right","right",1,0.482856125003309
"sub-012",60,"left","speed","left","left",1,0.398133750000852
"sub-012",1,"left","accuracy","left","left",1,2.44092533299408
"sub-012",2,"right","accuracy","right","right",1,0.492642167009762
"sub-012",3,"right","accuracy","right","left",0,0.467672083002981
"sub-012",4,"left","accuracy","left","left",1,0.530018083998584
"sub-012",5,"right","accuracy","right","right",1,0.516217750002397
"sub-012",6,"left","accuracy","left","left",1,0.570182541006943
"sub-012",7,"right","accuracy","right","right",1,1.12248308300332
"sub-012",8,"left","accuracy","left","left",1,0.601853375002975
"sub-012",9,"left","accuracy","left","left",1,2.78092283399019
"sub-012",10,"right","accuracy","right","right",1,1.25331200000073
"sub-012",11,"left","accuracy","left","left",1,0.69474729099602
"sub-012",12,"right","accuracy","right","right",1,0.630777292011771
"sub-012",13,"right","accuracy","right","right",1,0.869937916999334
"sub-012",14,"left","accuracy","left","left",1,0.505743625006289
"sub-012",15,"right","accuracy","right","right",1,0.533233082998777
"sub-012",16,"left","accuracy","left","left",1,0.506317916995613
"sub-012",17,"right","accuracy","right","right",1,0.945105083999806
"sub-012",18,"left","accuracy","left","left",1,0.418069332998129
"sub-012",19,"right","accuracy","right","right",1,0.683054334003828
"sub-012",20,"left","accuracy","left","left",1,0.418213875003857
"sub-012",21,"right","accuracy","right","right",1,0.437172208010452
"sub-012",22,"left","accuracy","left","left",1,0.483062790997792
"sub-012",23,"right","accuracy","right","right",1,0.53466250000929
"sub-012",24,"left","accuracy","left","left",1,0.284110458000214
"sub-012",25,"left","accuracy","left","left",1,0.722251249986584
"sub-012",26,"right","accuracy","right","right",1,0.406963625006028
"sub-012",27,"left","accuracy","left","left",1,0.672647917002905
"sub-012",28,"right","accuracy","right","right",1,0.398695166994003
"sub-012",29,"left","accuracy","left","left",1,0.45890800000052
"sub-012",30,"right","accuracy","right","right",1,0.35759779199725
"sub-012",31,"right","accuracy","right","right",1,0.692360333006945
"sub-012",32,"left","accuracy","left","left",1,0.400639542000135
"sub-012",33,"right","accuracy","right","right",1,0.296022250011447
"sub-012",34,"left","accuracy","left","left",1,0.519193291998818
"sub-012",35,"left","accuracy","left","left",1,0.556451041993569
"sub-012",36,"right","accuracy","right","right",1,0.3497424590023
"sub-012",37,"right","accuracy","right","right",1,0.83116895800049
"sub-012",38,"left","accuracy","left","left",1,0.460850834002485
"sub-012",39,"left","accuracy","left","right",0,0.437622957993881
"sub-012",40,"right","accuracy","right","right",1,0.669069042007322
"sub-012",41,"right","accuracy","right","right",1,0.711620417001541
"sub-012",42,"left","accuracy","left","left",1,0.716113000002224
"sub-012",43,"right","accuracy","right","right",1,0.526903374993708
"sub-012",44,"left","accuracy","left","left",1,0.434175791990128
"sub-012",45,"left","accuracy","left","left",1,0.446191374998307
"sub-012",46,"right","accuracy","right","right",1,0.506535541993799
"sub-012",47,"right","accuracy","right","right",1,0.490749249991495
"sub-012",48,"left","accuracy","left","left",1,0.333935457994812
"sub-012",49,"right","accuracy","right","right",1,0.48711495900352
"sub-012",50,"left","accuracy","left","left",1,0.534739291993901
"sub-012",51,"right","accuracy","right","right",1,0.329828750007437
"sub-012",52,"left","accuracy","left","left",1,0.511800499996752
"sub-012",53,"left","accuracy","left","left",1,0.495169292000355
"sub-012",54,"right","accuracy","right","right",1,0.340651374994195
"sub-012",55,"right","accuracy","right","right",1,0.597471332992427
"sub-012",56,"left","accuracy","left","left",1,0.393336749999435
"sub-012",57,"right","accuracy","right","right",1,0.37621712499822
"sub-012",58,"left","accuracy","left","left",1,0.433943374999217
"sub-012",59,"right","accuracy","right","right",1,0.541981458009104
"sub-012",60,"left","accuracy","left","left",1,0.494441457994981
"sub-015",1,"right","accuracy","right","left",0,2.00195853000332
"sub-015",2,"left","accuracy","left","right",0,2.41070909199334
"sub-015",3,"right","accuracy","right","right",1,4.06402602599701
"sub-015",4,"left","accuracy","left","left",1,1.47176759899594
"sub-015",5,"left","accuracy","left","left",1,3.0975605019994
"sub-015",6,"right","accuracy","right","right",1,1.83477093900001
"sub-015",7,"right","accuracy","right","right",1,2.94065858799877
"sub-015",8,"left","accuracy","left","left",1,1.51287586699618
"sub-015",9,"left","accuracy","left","right",0,1.31927184300002
"sub-015",10,"right","accuracy","right","right",1,1.87174567700276
"sub-015",11,"left","accuracy","left","left",1,4.27672587299458
"sub-015",12,"right","accuracy","right","left",0,2.51694385400333
"sub-015",13,"left","accuracy","left","right",0,2.58141825500206
"sub-015",14,"right","accuracy","right","right",1,2.4311236739959
"sub-015",15,"right","accuracy","right","left",0,2.62501340799645
"sub-015",16,"left","accuracy","left","left",1,2.41775902700465
"sub-015",17,"left","accuracy","left","left",1,4.19841930200346
"sub-015",18,"right","accuracy","right","right",1,2.09308478499588
"sub-015",19,"right","accuracy","right","right",1,4.11305219399947
"sub-015",20,"left","accuracy","left","left",1,2.54497786299908
"sub-015",21,"right","accuracy","right","right",1,5.57718986400141
"sub-015",22,"left","accuracy","left","left",1,3.24216544000228
"sub-015",23,"left","accuracy","left","left",1,2.66598160799913
"sub-015",24,"right","accuracy","right","left",0,4.93297363999591
"sub-015",25,"right","accuracy","right","right",1,0.906236077993526
"sub-015",26,"left","accuracy","left","left",1,6.60049304299901
"sub-015",27,"right","accuracy","right","left",0,5.31920205999631
"sub-015",28,"left","accuracy","left","right",0,3.77470000500034
"sub-015",29,"right","accuracy","right","right",1,4.64321373299754
"sub-015",30,"left","accuracy","left","left",1,3.96539334500267
"sub-015",31,"left","accuracy","left","left",1,3.55589725200116
"sub-015",32,"right","accuracy","right","right",1,4.08139744200162
"sub-015",33,"left","accuracy","left","left",1,4.81662485899869
"sub-015",34,"right","accuracy","right","right",1,3.52618676600105
"sub-015",35,"right","accuracy","right","right",1,3.54582485800347
"sub-015",36,"left","accuracy","left","left",1,2.96290146699903
"sub-015",37,"left","accuracy","left","left",1,2.04398854100145
"sub-015",38,"right","accuracy","right","right",1,1.52646993400413
"sub-015",39,"right","accuracy","right","right",1,1.90631795000081
"sub-015",40,"left","accuracy","left","left",1,1.9430031869997
"sub-015",41,"right","accuracy","right","right",1,1.60823324800003
"sub-015",42,"left","accuracy","left","left",1,3.25592671299819
"sub-015",43,"left","accuracy","left","left",1,2.20344407000084
"sub-015",44,"right","accuracy","right","right",1,1.24887628099532
"sub-015",45,"left","accuracy","left","left",1,3.11014863400487
"sub-015",46,"right","accuracy","right","right",1,4.07048681400192
"sub-015",47,"right","accuracy","right","left",0,4.19458961400233
"sub-015",48,"left","accuracy","left","right",0,4.53829964099714
"sub-015",49,"left","accuracy","left","left",1,3.60326249399805
"sub-015",50,"right","accuracy","right","right",1,3.66914201399777
"sub-015",51,"right","accuracy","right","right",1,2.82672713100328
"sub-015",52,"left","accuracy","left","left",1,3.40989504699974
"sub-015",53,"left","accuracy","left","left",1,3.09858750499552
"sub-015",54,"right","accuracy","right","right",1,1.54378861199802
"sub-015",55,"right","accuracy","right","right",1,1.48352171500301
"sub-015",56,"left","accuracy","left","left",1,3.7325246649998
"sub-015",57,"right","accuracy","right","right",1,2.16110738000134
"sub-015",58,"left","accuracy","left","left",1,1.48137522400066
"sub-015",59,"left","accuracy","left","left",1,2.94617840499996
"sub-015",60,"right","accuracy","right","right",1,1.83829749999859
"sub-015",1,"left","speed","left","left",1,3.87435658599861
"sub-015",2,"right","speed","right","right",1,0.999430178002512
"sub-015",3,"left","speed","left","left",1,0.317944982998597
"sub-015",4,"right","speed","right","right",1,1.62927222899452
"sub-015",5,"left","speed","left","left",1,1.200032404995
"sub-015",6,"right","speed","right","right",1,0.932345373999851
"sub-015",7,"right","speed","right","right",1,1.84605672699399
"sub-015",8,"left","speed","left","left",1,1.01719198899809
"sub-015",9,"left","speed","left","left",1,1.10011341299833
"sub-015",10,"right","speed","right","right",1,0.927931520003767
"sub-015",11,"right","speed","right","right",1,1.45805641399784
"sub-015",12,"left","speed","left","left",1,0.860839773005864
"sub-015",13,"right","speed","right","left",0,0.813935828002286
"sub-015",14,"left","speed","left","left",1,1.44799899300415
"sub-015",15,"right","speed","right","right",1,1.22582389699528
"sub-015",16,"left","speed","left","left",1,2.24170327599859
"sub-015",17,"right","speed","right","right",1,2.56121589300164
"sub-015",18,"left","speed","left","left",1,1.96737197699986
"sub-015",19,"right","speed","right","right",1,1.63965606300189
"sub-015",20,"left","speed","left","left",1,1.45409657900018
"sub-015",21,"left","speed","left","left",1,2.91596834599477
"sub-015",22,"right","speed","right","right",1,3.55298101399967
"sub-015",23,"right","speed","right","right",1,2.83339958400029
"sub-015",24,"left","speed","left","left",1,1.28695310899639
"sub-015",25,"left","speed","left","right",0,1.24072376700497
"sub-015",26,"right","speed","right","right",1,1.4644090399961
"sub-015",27,"left","speed","left","left",1,2.48814928700449
"sub-015",28,"right","speed","right","right",1,1.01166117099638
"sub-015",29,"right","speed","right","right",1,1.00102778300061
"sub-015",30,"left","speed","left","left",1,1.84802218299592
"sub-015",31,"left","speed","left","right",0,1.00974182800564
"sub-015",32,"right","speed","right","right",1,0.937114063002809
"sub-015",33,"left","speed","left","left",1,1.65462531599769
"sub-015",34,"right","speed","right","right",1,1.63649037999858
"sub-015",35,"left","speed","left","left",1,1.94298872199579
"sub-015",36,"right","speed","right","right",1,1.65213272300025
"sub-015",37,"left","speed","left","right",0,2.2264643219969
"sub-015",38,"right","speed","right","right",1,2.28316434700537
"sub-015",39,"left","speed","left","right",0,3.34935717500048
"sub-015",40,"right","speed","right","left",0,2.91608935100521
"sub-015",41,"right","speed","right","right",1,5.27779374999955
"sub-015",42,"left","speed","left","right",0,1.22451545999502
"sub-015",43,"right","speed","right","left",0,1.17174775300373
"sub-015",44,"left","speed","left","left",1,1.19659081200371
"sub-015",45,"left","speed","left","left",1,1.39488718099892
"sub-015",46,"right","speed","right","right",1,1.42592865399638
"sub-015",47,"left","speed","left","left",1,1.04121188299905
"sub-015",48,"right","speed","right","right",1,0.623003223001433
"sub-015",49,"right","speed","right","left",0,0.715625366996392
"sub-015",50,"left","speed","left","left",1,1.19854942399979
"sub-015",51,"right","speed","right","right",1,1.57158101000095
"sub-015",52,"left","speed","left","right",0,1.20079072900262
"sub-015",53,"right","speed","right","right",1,1.38021212199965
"sub-015",54,"left","speed","left","right",0,1.25847853900632
"sub-015",55,"right","speed","right","right",1,0.819837865004956
"sub-015",56,"left","speed","left","left",1,0.73908769099944
"sub-015",57,"left","speed","left","left",1,1.57670592700015
"sub-015",58,"right","speed","right","left",0,1.18710628500412
"sub-015",59,"right","speed","right","right",1,1.010477859003
"sub-015",60,"left","speed","left","right",0,1.40356962200167
"sub-019",1,"right","accuracy","right","right",1,0.545489869997255
"sub-019",2,"left","accuracy","left","right",0,0.995159298996441
"sub-019",3,"right","accuracy","right","right",1,1.62008269899525
"sub-019",4,"left","accuracy","left","left",1,2.78977662300167
"sub-019",5,"right","accuracy","right","right",1,0.977865243010456
"sub-019",6,"left","accuracy","left","left",1,1.87042428800487
"sub-019",7,"right","accuracy","right","right",1,0.803842085995711
"sub-019",8,"left","accuracy","left","left",1,1.60552749599447
"sub-019",9,"left","accuracy","left","left",1,3.43882540799677
"sub-019",10,"right","accuracy","right","right",1,0.874729984992882
"sub-019",11,"right","accuracy","right","right",1,1.15997339099704
"sub-019",12,"left","accuracy","left","left",1,1.20993606498814
"sub-019",13,"left","accuracy","left","right",0,0.949145898004645
"sub-019",14,"right","accuracy","right","right",1,0.838795673989807
"sub-019",15,"right","accuracy","right","right",1,0.805902691994561
"sub-019",16,"left","accuracy","left","right",0,0.563859867994324
"sub-019",17,"left","accuracy","left","left",1,1.06801697600167
"sub-019",18,"right","accuracy","right","right",1,1.31520104699302
"sub-019",19,"left","accuracy","left","left",1,1.61111435199564
"sub-019",20,"right","accuracy","right","right",1,0.845442351012025
"sub-019",21,"left","accuracy","left","left",1,0.963073349004844
"sub-019",22,"right","accuracy","right","right",1,1.11441869400733
"sub-019",23,"right","accuracy","right","left",0,2.96655676599767
"sub-019",24,"left","accuracy","left","left",1,1.1635316079919
"sub-019",25,"left","accuracy","left","left",1,2.73758141700819
"sub-019",26,"right","accuracy","right","right",1,1.80162458399718
"sub-019",27,"right","accuracy","right","left",0,1.70483290099946
"sub-019",28,"left","accuracy","left","right",0,1.73315232500318
"sub-019",29,"right","accuracy","right","right",1,0.679330387007212
"sub-019",30,"left","accuracy","left","left",1,0.74770636500034
"sub-019",31,"right","accuracy","right","right",1,1.16720779999741
"sub-019",32,"left","accuracy","left","left",1,0.765100126998732
"sub-019",33,"left","accuracy","left","left",1,0.5973693440028
"sub-019",34,"right","accuracy","right","right",1,1.07276016799733
"sub-019",35,"right","accuracy","right","left",0,2.27498784499767
"sub-019",36,"left","accuracy","left","left",1,1.087667735992
"sub-019",37,"right","accuracy","right","right",1,2.56210138199094
"sub-019",38,"left","accuracy","left","left",1,2.66088279699034
"sub-019",39,"right","accuracy","right","right",1,1.81057823299488
"sub-019",40,"left","accuracy","left","left",1,2.29732155799866
"sub-019",41,"right","accuracy","right","right",1,1.40016678899701
"sub-019",42,"left","accuracy","left","left",1,2.10028773199883
"sub-019",43,"left","accuracy","left","left",1,1.66288107199944
"sub-019",44,"right","accuracy","right","right",1,2.53174873399257
"sub-019",45,"left","accuracy","left","left",1,0.728892290004296
"sub-019",46,"right","accuracy","right","right",1,1.56102246699447
"sub-019",47,"left","accuracy","left","left",1,1.53465995300212
"sub-019",48,"right","accuracy","right","right",1,0.979621237012907
"sub-019",49,"left","accuracy","left","left",1,1.70746756599692
"sub-019",50,"right","accuracy","right","right",1,1.39411592899705
"sub-019",51,"left","accuracy","left","left",1,2.11933956800203
"sub-019",52,"right","accuracy","right","left",0,1.26266316699912
"sub-019",53,"right","accuracy","right","right",1,2.27400864000083
"sub-019",54,"left","accuracy","left","left",1,1.52989577800327
"sub-019",55,"left","accuracy","left","left",1,3.61239258700516
"sub-019",56,"right","accuracy","right","right",1,3.06755800999235
"sub-019",57,"right","accuracy","right","right",1,2.65891968100914
"sub-019",58,"left","accuracy","left","left",1,0.778592780989129
"sub-019",59,"left","accuracy","left","left",1,0.873221108995494
"sub-019",60,"right","accuracy","right","right",1,0.860560127999634
"sub-019",1,"right","speed","right","right",1,0.362136968004052
"sub-019",2,"left","speed","left","left",1,0.33820992699475
"sub-019",3,"left","speed","left","left",1,0.349400706007145
"sub-019",4,"right","speed","right","right",1,0.343770595995011
"sub-019",5,"left","speed","left","left",1,0.404667688999325
"sub-019",6,"right","speed","right","left",0,0.506765826998162
"sub-019",7,"right","speed","right","right",1,0.504020669992315
"sub-019",8,"left","speed","left","left",1,0.44075261199032
"sub-019",9,"right","speed","right","right",1,0.547197002000757
"sub-019",10,"left","speed","left","left",1,1.08139182299783
"sub-019",11,"right","speed","right","left",0,0.609126682000351
"sub-019",12,"left","speed","left","left",1,0.600187796997488
"sub-019",13,"right","speed","right","right",1,1.14634430299338
"sub-019",14,"left","speed","left","left",1,0.532213757993304
"sub-019",15,"right","speed","right","right",1,0.763555963989347
"sub-019",16,"left","speed","left","left",1,0.503550576991984
"sub-019",17,"left","speed","left","left",1,0.528673266991973
"sub-019",18,"right","speed","right","left",0,0.558062972006155
"sub-019",19,"right","speed","right","right",1,1.17319054699328
"sub-019",20,"left","speed","left","left",1,0.621552219003206
"sub-019",21,"right","speed","right","right",1,2.79989691800438
"sub-019",22,"left","speed","left","left",1,0.325408919990878
"sub-019",23,"left","speed","left","left",1,0.398835394007619
"sub-019",24,"right","speed","right","left",0,0.576412362002884
"sub-019",25,"left","speed","left","right",0,0.583623466998688
"sub-019",26,"right","speed","right","left",0,0.55342233099509
"sub-019",27,"left","speed","left","left",1,0.521641348997946
"sub-019",28,"right","speed","right","right",1,0.974934500001837
"sub-019",29,"right","speed","right","left",0,0.846556364995195
"sub-019",30,"left","speed","left","left",1,0.807102744001895
"sub-019",31,"right","speed","right","right",1,0.826216454996029
"sub-019",32,"left","speed","left","left",1,0.814821096995729
"sub-019",33,"right","speed","right","right",1,2.11373696499504
"sub-019",34,"left","speed","left","left",1,0.606154149005306
"sub-019",35,"left","speed","left","left",1,1.42707050898753
"sub-019",36,"right","speed","right","left",0,3.35042953499942
"sub-019",37,"left","speed","left","left",1,0.797715503998916
"sub-019",38,"right","speed","right","left",0,0.715878415008774
"sub-019",39,"right","speed","right","left",0,1.87999067200872
"sub-019",40,"left","speed","left","right",0,2.17564916399715
"sub-019",41,"left","speed","left","left",1,0.70997230100329
"sub-019",42,"right","speed","right","right",1,1.81765206200362
"sub-019",43,"left","speed","left","left",1,2.22050969899283
"sub-019",44,"right","speed","right","left",0,0.664424054004485
"sub-019",45,"right","speed","right","right",1,3.01403735698841
"sub-019",46,"left","speed","left","left",1,1.06586539500859
"sub-019",47,"right","speed","right","left",0,4.51752931300143
"sub-019",48,"left","speed","left","left",1,0.808153074991424
"sub-019",49,"left","speed","left","left",1,2.71677237200493
"sub-019",50,"right","speed","right","left",0,2.97500021799351
"sub-019",51,"right","speed","right","right",1,1.96570930699818
"sub-019",52,"left","speed","left","left",1,0.462463078001747
"sub-019",53,"left","speed","left","left",1,3.58734537599958
"sub-019",54,"right","speed","right","right",1,1.85265753199928
"sub-019",55,"right","speed","right","right",1,1.47090426999785
"sub-019",56,"left","speed","left","left",1,1.2789673369989
"sub-019",57,"left","speed","left","left",1,1.23291024500213
"sub-019",58,"right","speed","right","right",1,2.34555502700096
"sub-019",59,"right","speed","right","right",1,2.23202117699839
"sub-019",60,"left","speed","left","left",1,0.796499845993822
"sub-025",1,"left","speed","left","left",1,1.1148211969994
"sub-025",2,"right","speed","right","right",1,0.736665123004059
"sub-025",3,"right","speed","right","right",1,1.49583197600441
"sub-025",4,"left","speed","left","left",1,2.23559982800361
"sub-025",5,"right","speed","right","left",0,1.10823565999453
"sub-025",6,"left","speed","left","right",0,2.52712610299932
"sub-025",7,"left","speed","left","left",1,2.06328884200047
"sub-025",8,"right","speed","right","right",1,4.03840129399759
"sub-025",9,"right","speed","right","right",1,0.953071089999867
"sub-025",10,"left","speed","left","left",1,1.68830684899876
"sub-025",11,"right","speed","right","right",1,0.821745624998584
"sub-025",12,"left","speed","left","left",1,0.851210606000677
"sub-025",13,"right","speed","right","right",1,0.938330946999486
"sub-025",14,"left","speed","left","left",1,0.810505110006488
"sub-025",15,"left","speed","left","right",0,0.935378690002835
"sub-025",16,"right","speed","right","right",1,0.789536699005112
"sub-025",17,"left","speed","left","left",1,0.647967805998633
"sub-025",18,"right","speed","right","right",1,2.07160643800307
"sub-025",19,"right","speed","right","right",1,0.783368162999977
"sub-025",20,"left","speed","left","left",1,0.732695888000308
"sub-025",21,"left","speed","left","left",1,0.815008768993721
"sub-025",22,"right","speed","right","right",1,1.33318137300375
"sub-025",23,"left","speed","left","left",1,0.822037783000269
"sub-025",24,"right","speed","right","left",0,1.35054775299795
"sub-025",25,"left","speed","left","right",0,0.840624199001468
"sub-025",26,"right","speed","right","right",1,0.867327041996759
"sub-025",27,"left","speed","left","left",1,0.740979317997699
"sub-025",28,"right","speed","right","left",0,2.05949774100009
"sub-025",29,"left","speed","left","left",1,0.849430707996362
"sub-025",30,"right","speed","right","right",1,0.856538627995178
"sub-025",31,"right","speed","right","right",1,1.25057622100576
"sub-025",32,"left","speed","left","left",1,0.700437460000103
"sub-025",33,"right","speed","right","right",1,1.40491230100452
"sub-025",34,"left","speed","left","left",1,0.807319243001984
"sub-025",35,"left","speed","left","left",1,0.694077988002391
"sub-025",36,"right","speed","right","right",1,0.937445253999613
"sub-025",37,"right","speed","right","right",1,3.28473859800579
"sub-025",38,"left","speed","left","left",1,0.732524840997939
"sub-025",39,"left","speed","left","left",1,1.69067566100421
"sub-025",40,"right","speed","right","right",1,2.75588523299666
"sub-025",41,"right","speed","right","left",0,0.889220315002603
"sub-025",42,"left","speed","left","left",1,0.91990656300186
"sub-025",43,"right","speed","right","right",1,0.715812767004536
"sub-025",44,"left","speed","left","left",1,0.713640922003833
"sub-025",45,"left","speed","left","left",1,0.723916949995328
"sub-025",46,"right","speed","right","right",1,0.586904563999269
"sub-025",47,"left","speed","left","left",1,0.582771547000448
"sub-025",48,"right","speed","right","right",1,0.792057890997967
"sub-025",49,"left","speed","left","left",1,0.791040587995667
"sub-025",50,"right","speed","right","right",1,3.35295166700234
"sub-025",51,"right","speed","right","right",1,0.647282636004093
"sub-025",52,"left","speed","left","right",0,0.968037632999767
"sub-025",53,"left","speed","left","left",1,2.08774750999874
"sub-025",54,"right","speed","right","right",1,0.870008875004714
"sub-025",55,"right","speed","right","right",1,2.01276263400359
"sub-025",56,"left","speed","left","left",1,1.14154461299768
"sub-025",57,"left","speed","left","left",1,0.784495693005738
"sub-025",58,"right","speed","right","right",1,0.610392073002004
"sub-025",59,"left","speed","left","left",1,0.688436727003136
"sub-025",60,"right","speed","right","right",1,0.604702844997519
"sub-025",1,"right","accuracy","right","right",1,2.96906911099359
"sub-025",2,"left","accuracy","left","left",1,1.13157542700355
"sub-025",3,"right","accuracy","right","right",1,0.902248833001067
"sub-025",4,"left","accuracy","left","left",1,2.44634898000368
"sub-025",5,"right","accuracy","right","right",1,4.96410514699528
"sub-025",6,"left","accuracy","left","left",1,1.1493439429978
"sub-025",7,"left","accuracy","left","left",1,0.783460111997556
"sub-025",8,"right","accuracy","right","left",0,1.55585191599675
"sub-025",9,"left","accuracy","left","left",1,1.2646107670007
"sub-025",10,"right","accuracy","right","right",1,0.898380299004202
"sub-025",11,"left","accuracy","left","left",1,1.20842302399979
"sub-025",12,"right","accuracy","right","left",0,1.76686316799896
"sub-025",13,"left","accuracy","left","left",1,2.41446701100358
"sub-025",14,"right","accuracy","right","left",0,2.21923612200044
"sub-025",15,"right","accuracy","right","left",0,1.52153351799643
"sub-025",16,"left","accuracy","left","left",1,4.0121911210008
"sub-025",17,"right","accuracy","right","left",0,2.11993945399445
"sub-025",18,"left","accuracy","left","left",1,5.77097129799949
"sub-025",19,"right","accuracy","right","right",1,4.55619545900117
"sub-025",20,"left","accuracy","left","left",1,1.01689470099518
"sub-025",21,"left","accuracy","left","left",1,5.68932901500375
"sub-025",22,"right","accuracy","right","right",1,4.73648858600063
"sub-025",23,"right","accuracy","right","right",1,2.01710134400491
"sub-025",24,"left","accuracy","left","left",1,2.75773124399711
"sub-025",25,"right","accuracy","right","left",0,4.25962891500239
"sub-025",26,"left","accuracy","left","left",1,5.521515679
"sub-025",27,"right","accuracy","right","left",0,6.35959421799635
"sub-025",28,"left","accuracy","left","left",1,1.87506156400195
"sub-025",29,"left","accuracy","left","left",1,4.29117113999382
"sub-025",30,"right","accuracy","right","right",1,1.07113858999946
"sub-025",31,"right","accuracy","right","right",1,3.72186786000384
"sub-025",32,"left","accuracy","left","left",1,2.42165135699906
"sub-025",33,"right","accuracy","right","right",1,0.897899891999259
"sub-025",34,"left","accuracy","left","left",1,4.6215021609969
"sub-025",35,"right","accuracy","right","right",1,5.52153254300356
"sub-025",36,"left","accuracy","left","left",1,2.57790997599659
"sub-025",37,"left","accuracy","left","left",1,3.34224149800139
"sub-025",38,"right","accuracy","right","left",0,5.77690538600291
"sub-025",39,"left","accuracy","left","right",0,4.23438416499994
"sub-025",40,"right","accuracy","right","left",0,5.49558416599757
"sub-025",41,"left","accuracy","left","left",1,2.20641529500426
"sub-025",42,"right","accuracy","right","right",1,2.88206657900446
"sub-025",43,"right","accuracy","right","left",0,3.83973529099603
"sub-025",44,"left","accuracy","left","left",1,4.23013155099761
"sub-025",45,"right","accuracy","right","left",0,5.72119254800054
"sub-025",46,"left","accuracy","left","left",1,2.29584076700121
"sub-025",47,"left","accuracy","left","left",1,5.46304861899989
"sub-025",48,"right","accuracy","right","right",1,4.17591661099868
"sub-025",49,"right","accuracy","right","right",1,4.22609855100018
"sub-025",50,"left","accuracy","left","left",1,5.44269347900263
"sub-025",51,"left","accuracy","left","left",1,5.61481068400462
"sub-025",52,"right","accuracy","right","right",1,3.22739862099843
"sub-025",53,"left","accuracy","left","left",1,1.48706059999677
"sub-025",54,"right","accuracy","right","right",1,2.81747614600317
"sub-025",55,"right","accuracy","right","right",1,1.96883970899944
"sub-025",56,"left","accuracy","left","left",1,2.65227278000384
"sub-025",57,"left","accuracy","left","right",0,1.93092225299915
"sub-025",58,"right","accuracy","right","left",0,1.69945019300212
"sub-025",59,"right","accuracy","right","right",1,1.18416432799859
"sub-025",60,"left","accuracy","left","left",1,5.79211835499882
"sub-041",1,"right","speed","right","right",1,0.942965399999594
"sub-041",2,"left","speed","left","left",1,1.12431780000043
"sub-041",3,"left","speed","left","left",1,1.82622160000028
"sub-041",4,"right","speed","right","right",1,1.46702809999988
"sub-041",5,"left","speed","left","left",1,1.09297390000029
"sub-041",6,"right","speed","right","right",1,2.24797639999997
"sub-041",7,"left","speed","left","left",1,4.61330409999937
"sub-041",8,"right","speed","right","right",1,1.57569820000026
"sub-041",9,"left","speed","left","left",1,1.3125254000006
"sub-041",10,"right","speed","right","left",0,1.36593959999846
"sub-041",11,"right","speed","right","right",1,2.67960889999995
"sub-041",12,"left","speed","left","left",1,2.1183359000006
"sub-041",13,"right","speed","right","right",1,2.03657949999979
"sub-041",14,"left","speed","left","left",1,2.23318019999897
"sub-041",15,"right","speed","right","right",1,0.977687500000684
"sub-041",16,"left","speed","left","left",1,1.49543899999844
"sub-041",17,"right","speed","right","right",1,1.96625679999852
"sub-041",18,"left","speed","left","left",1,2.62014850000014
"sub-041",19,"right","speed","right","right",1,1.62344549999943
"sub-041",20,"left","speed","left","left",1,2.84115299999939
"sub-041",21,"right","speed","right","right",1,1.17911800000002
"sub-041",22,"left","speed","left","left",1,4.80694260000018
"sub-041",23,"right","speed","right","right",1,1.75357689999873
"sub-041",24,"left","speed","left","left",1,4.38088330000028
"sub-041",25,"right","speed","right","right",1,5.69147919999887
"sub-041",26,"left","speed","left","left",1,1.00418929999978
"sub-041",27,"right","speed","right","left",0,2.55503630000021
"sub-041",28,"left","speed","left","left",1,2.49103719999948
"sub-041",29,"right","speed","right","right",1,4.10782130000007
"sub-041",30,"left","speed","left","left",1,1.57623999999851
"sub-041",31,"left","speed","left","left",1,1.12162290000015
"sub-041",32,"right","speed","right","right",1,1.5356783999996
"sub-041",33,"right","speed","right","right",1,1.53527919999942
"sub-041",34,"left","speed","left","left",1,2.18925090000084
"sub-041",35,"right","speed","right","right",1,1.14603429999988
"sub-041",36,"left","speed","left","left",1,1.88499009999941
"sub-041",37,"left","speed","left","left",1,0.86292610000055
"sub-041",38,"right","speed","right","right",1,1.04958449999867
"sub-041",39,"right","speed","right","right",1,1.65336539999953
"sub-041",40,"left","speed","left","left",1,1.14886079999997
"sub-041",41,"left","speed","left","left",1,1.27391220000027
"sub-041",42,"right","speed","right","right",1,1.88817600000039
"sub-041",43,"right","speed","right","right",1,1.81651440000132
"sub-041",44,"left","speed","left","left",1,2.31088839999939
"sub-041",45,"left","speed","left","left",1,1.61165019999862
"sub-041",46,"right","speed","right","right",1,1.391219000001
"sub-041",47,"left","speed","left","right",0,2.32442439999977
"sub-041",48,"right","speed","right","right",1,1.00509529999908
"sub-041",49,"left","speed","left","left",1,1.58198289999928
"sub-041",50,"right","speed","right","right",1,1.69227129999854
"sub-041",51,"left","speed","left","left",1,2.28933069999948
"sub-041",52,"right","speed","right","right",1,1.87659669999994
"sub-041",53,"right","speed","right","right",1,0.94346779999978
"sub-041",54,"left","speed","left","left",1,1.13103919999958
"sub-041",55,"right","speed","right","right",1,1.33467960000053
"sub-041",56,"left","speed","left","right",0,4.64158390000011
"sub-041",57,"right","speed","right","right",1,1.87217550000059
"sub-041",58,"left","speed","left","left",1,1.79773529999875
"sub-041",59,"right","speed","right","right",1,1.12047679999887
"sub-041",60,"left","speed","left","left",1,1.66430100000071
"sub-041",1,"left","accuracy","left","right",0,2.9348702999996
"sub-041",2,"right","accuracy","right","right",1,2.80959079999957
"sub-041",3,"left","accuracy","left","left",1,2.00634010000067
"sub-041",4,"right","accuracy","right","right",1,1.4860445000013
"sub-041",5,"left","accuracy","left","left",1,2.84521590000077
"sub-041",6,"right","accuracy","right","right",1,1.23896889999924
"sub-041",7,"left","accuracy","left","left",1,4.77042439999968
"sub-041",8,"right","accuracy","right","right",1,3.11570550000033
"sub-041",9,"left","accuracy","left","left",1,3.00592030000007
"sub-041",10,"right","accuracy","right","right",1,4.23465290000058
"sub-041",11,"left","accuracy","left","left",1,1.01222589999998
"sub-041",12,"right","accuracy","right","right",1,1.59151039999961
"sub-041",13,"left","accuracy","left","left",1,1.23036370000045
"sub-041",14,"right","accuracy","right","left",0,2.20423590000064
"sub-041",15,"left","accuracy","left","right",0,6.38120310000158
"sub-041",16,"right","accuracy","right","right",1,1.23455450000074
"sub-041",17,"right","accuracy","right","right",1,3.81046839999908
"sub-041",18,"left","accuracy","left","left",1,1.01416789999894
"sub-041",19,"right","accuracy","right","right",1,1.8043818999995
"sub-041",20,"left","accuracy","left","left",1,2.47747219999837
"sub-041",21,"right","accuracy","right","right",1,1.34110879999935
"sub-041",22,"left","accuracy","left","right",0,1.1746673000016
"sub-041",23,"right","accuracy","right","right",1,1.81466929999988
"sub-041",24,"left","accuracy","left","left",1,1.73861620000025
"sub-041",25,"left","accuracy","left","left",1,1.15491299999849
"sub-041",26,"right","accuracy","right","right",1,1.32061020000037
"sub-041",27,"right","accuracy","right","right",1,1.51976350000041
"sub-041",28,"left","accuracy","left","left",1,1.81188810000094
"sub-041",29,"left","accuracy","left","right",0,4.3732760999992
"sub-041",30,"right","accuracy","right","right",1,3.28401810000105
"sub-041",31,"right","accuracy","right","right",1,2.48135809999985
"sub-041",32,"left","accuracy","left","left",1,2.6568557999999
"sub-041",33,"right","accuracy","right","right",1,1.97763180000038
"sub-041",34,"left","accuracy","left","left",1,3.27718579999964
"sub-041",35,"right","accuracy","right","right",1,1.66318829999909
"sub-041",36,"left","accuracy","left","left",1,2.02401040000041
"sub-041",37,"right","accuracy","right","right",1,0.947068699999363
"sub-041",38,"left","accuracy","left","left",1,1.89000609999857
"sub-041",39,"right","accuracy","right","right",1,1.31542900000022
"sub-041",40,"left","accuracy","left","left",1,1.65523740000026
"sub-041",41,"left","accuracy","left","left",1,5.18025069999931
"sub-041",42,"right","accuracy","right","right",1,0.792924400000629
"sub-041",43,"right","accuracy","right","right",1,1.12143979999928
"sub-041",44,"left","accuracy","left","left",1,1.36894440000106
"sub-041",45,"right","accuracy","right","right",1,0.972613299998557
"sub-041",46,"left","accuracy","left","left",1,1.32937270000002
"sub-041",47,"left","accuracy","left","left",1,4.01132740000139
"sub-041",48,"right","accuracy","right","right",1,0.988982300001226
"sub-041",49,"right","accuracy","right","right",1,4.14200800000071
"sub-041",50,"left","accuracy","left","left",1,3.68510119999883
"sub-041",51,"right","accuracy","right","right",1,3.88099030000012
"sub-041",52,"left","accuracy","left","left",1,1.37974159999976
"sub-041",53,"left","accuracy","left","right",0,3.79645840000012
"sub-041",54,"right","accuracy","right","right",1,2.26169890000165
"sub-041",55,"right","accuracy","right","right",1,3.00687489999836
"sub-041",56,"left","accuracy","left","left",1,1.44122320000133
"sub-041",57,"right","accuracy","right","left",0,3.11810390000028
"sub-041",58,"left","accuracy","left","right",0,3.58383649999996
"sub-041",59,"right","accuracy","right","right",1,4.66914569999972
"sub-041",60,"left","accuracy","left","left",1,5.75872490000074
"sub-042",1,"right","accuracy","right","right",1,0.847502636999707
"sub-042",2,"left","accuracy","left","left",1,0.819744864000313
"sub-042",3,"left","accuracy","left","left",1,0.954257254999902
"sub-042",4,"right","accuracy","right","right",1,0.687297292000949
"sub-042",5,"right","accuracy","right","left",0,1.03300923499955
"sub-042",6,"left","accuracy","left","left",1,1.39116499200099
"sub-042",7,"right","accuracy","right","right",1,0.894187392999811
"sub-042",8,"left","accuracy","left","left",1,0.709915031999117
"sub-042",9,"left","accuracy","left","left",1,0.764983987999585
"sub-042",10,"right","accuracy","right","right",1,0.657017958001234
"sub-042",11,"left","accuracy","left","left",1,0.663096315000075
"sub-042",12,"right","accuracy","right","right",1,0.674957679000727
"sub-042",13,"right","accuracy","right","right",1,1.2229191760016
"sub-042",14,"left","accuracy","left","left",1,0.777080333000413
"sub-042",15,"left","accuracy","left","right",0,0.918988763000016
"sub-042",16,"right","accuracy","right","right",1,0.752105941000991
"sub-042",17,"left","accuracy","left","left",1,2.53468541400071
"sub-042",18,"right","accuracy","right","right",1,0.671050519000346
"sub-042",19,"left","accuracy","left","left",1,1.25494351699854
"sub-042",20,"right","accuracy","right","right",1,0.678516136000326
"sub-042",21,"left","accuracy","left","left",1,0.828291488000104
"sub-042",22,"right","accuracy","right","right",1,0.79987988099856
"sub-042",23,"right","accuracy","right","right",1,1.33657347000008
"sub-042",24,"left","accuracy","left","left",1,3.10042006499862
"sub-042",25,"right","accuracy","right","right",1,0.628534198000125
"sub-042",26,"left","accuracy","left","left",1,0.768665466999664
"sub-042",27,"left","accuracy","left","left",1,1.07240985200042
"sub-042",28,"right","accuracy","right","right",1,0.683988892000343
"sub-042",29,"right","accuracy","right","left",0,2.06118900799993
"sub-042",30,"left","accuracy","left","right",0,1.35204526199959
"sub-042",31,"left","accuracy","left","left",1,1.13213933899897
"sub-042",32,"right","accuracy","right","right",1,0.607343960000435
"sub-042",33,"left","accuracy","left","left",1,1.03263214500112
"sub-042",34,"right","accuracy","right","right",1,0.673781739998958
"sub-042",35,"right","accuracy","right","right",1,1.30731859499974
"sub-042",36,"left","accuracy","left","right",0,1.96644279800057
"sub-042",37,"right","accuracy","right","left",0,2.78272431200094
"sub-042",38,"left","accuracy","left","left",1,2.46484171900011
"sub-042",39,"left","accuracy","left","left",1,1.37494891099959
"sub-042",40,"right","accuracy","right","right",1,0.674437007000961
"sub-042",41,"left","accuracy","left","right",0,2.95516193500043
"sub-042",42,"right","accuracy","right","right",1,0.836811941999258
"sub-042",43,"left","accuracy","left","left",1,0.80175879700073
"sub-042",44,"right","accuracy","right","right",1,0.787914432999969
"sub-042",45,"right","accuracy","right","left",0,0.649681901999429
"sub-042",46,"left","accuracy","left","left",1,1.39505572000053
"sub-042",47,"right","accuracy","right","right",1,0.599771023000358
"sub-042",48,"left","accuracy","left","left",1,1.64104729800056
"sub-042",49,"right","accuracy","right","right",1,0.669470318000094
"sub-042",50,"left","accuracy","left","left",1,1.35491252099928
"sub-042",51,"right","accuracy","right","right",1,0.611736184999245
"sub-042",52,"left","accuracy","left","left",1,0.829603271000451
"sub-042",53,"left","accuracy","left","left",1,0.708865931001128
"sub-042",54,"right","accuracy","right","right",1,0.6723250799987
"sub-042",55,"left","accuracy","left","left",1,1.72841793400039
"sub-042",56,"right","accuracy","right","right",1,0.691280142998949
"sub-042",57,"left","accuracy","left","left",1,0.799495182998726
"sub-042",58,"right","accuracy","right","right",1,0.616210607999164
"sub-042",59,"left","accuracy","left","left",1,1.12750519099973
"sub-042",60,"right","accuracy","right","right",1,0.588465986000301
"sub-042",1,"right","speed","right","right",1,1.06746189099977
"sub-042",2,"left","speed","left","left",1,1.04174747599973
"sub-042",3,"left","speed","left","left",1,0.758318514001076
"sub-042",4,"right","speed","right","right",1,0.611049817000094
"sub-042",5,"right","speed","right","right",1,0.955370547999337
"sub-042",6,"left","speed","left","left",1,0.624290435000148
"sub-042",7,"left","speed","left","right",0,0.910584426999776
"sub-042",8,"right","speed","right","right",1,0.620238255000004
"sub-042",9,"right","speed","right","right",1,0.806956504000482
"sub-042",10,"left","speed","left","left",1,0.936117588000343
"sub-042",11,"left","speed","left","left",1,0.687579855999502
"sub-042",12,"right","speed","right","right",1,0.651151291998758
"sub-042",13,"left","speed","left","left",1,1.19572036999853
"sub-042",14,"right","speed","right","right",1,0.995465431999037
"sub-042",15,"right","speed","right","right",1,1.36648183100078
"sub-042",16,"left","speed","left","right",0,2.19525461199919
"sub-042",17,"left","speed","left","right",0,1.07528391800042
"sub-042",18,"right","speed","right","left",0,2.41171484200095
"sub-042",19,"right","speed","right","left",0,0.976470610999968
"sub-042",20,"left","speed","left","left",1,0.790956040998935
"sub-042",21,"right","speed","right","right",1,1.30282756199995
"sub-042",22,"left","speed","left","right",0,0.708141780000005
"sub-042",23,"right","speed","right","right",1,1.1087642170005
"sub-042",24,"left","speed","left","left",1,2.06114253399937
"sub-042",25,"right","speed","right","left",0,0.951667383000313
"sub-042",26,"left","speed","left","left",1,1.25033545800034
"sub-042",27,"left","speed","left","left",1,2.16975098299918
"sub-042",28,"right","speed","right","right",1,0.603982610000457
"sub-042",29,"left","speed","left","left",1,1.73798415200145
"sub-042",30,"right","speed","right","right",1,0.99425511300069
"sub-042",31,"right","speed","right","right",1,0.70686949300034
"sub-042",32,"left","speed","left","right",0,0.741109275000781
"sub-042",33,"right","speed","right","right",1,0.826736344999517
"sub-042",34,"left","speed","left","left",1,0.549170202000823
"sub-042",35,"left","speed","left","left",1,2.17912236800112
"sub-042",36,"right","speed","right","right",1,1.81196176699996
"sub-042",37,"left","speed","left","right",0,0.857605916999091
"sub-042",38,"right","speed","right","right",1,1.20333629000015
"sub-042",39,"right","speed","right","left",0,1.65560368099977
"sub-042",40,"left","speed","left","right",0,0.932524294999894
"sub-042",41,"right","speed","right","left",0,1.00622457399913
"sub-042",42,"left","speed","left","right",0,1.69531398599975
"sub-042",43,"left","speed","left","left",1,0.966705976999947
"sub-042",44,"right","speed","right","right",1,2.59694985299939
"sub-042",45,"left","speed","left","left",1,0.668047191000369
"sub-042",46,"right","speed","right","left",0,1.30064714000036
"sub-042",47,"left","speed","left","left",1,1.92229198900168
"sub-042",48,"right","speed","right","right",1,1.46662323799865
"sub-042",49,"right","speed","right","right",1,1.04222524699981
"sub-042",50,"left","speed","left","right",0,1.13966777100177
"sub-042",51,"right","speed","right","left",0,1.64758604899907
"sub-042",52,"left","speed","left","left",1,1.53371221000089
"sub-042",53,"right","speed","right","left",0,1.32962887400026
"sub-042",54,"left","speed","left","left",1,1.39724926500094
"sub-042",55,"right","speed","right","right",1,0.887862472000052
"sub-042",56,"left","speed","left","right",0,0.812437272999887
"sub-042",57,"left","speed","left","right",0,1.46328320300017
"sub-042",58,"right","speed","right","left",0,1.06077337900024
"sub-042",59,"right","speed","right","left",0,1.43946556599985
"sub-042",60,"left","speed","left","left",1,0.867012418000741
"sub-046",1,"left","accuracy","left","left",1,3.49416154099163
"sub-046",2,"right","accuracy","right","right",1,0.951319582993165
"sub-046",3,"left","accuracy","left","right",0,3.14864249998936
"sub-046",4,"right","accuracy","right","right",1,2.92710012500174
"sub-046",5,"left","accuracy","left","left",1,5.49179987501702
"sub-046",6,"right","accuracy","right","left",0,3.43437379199895
"sub-046",7,"right","accuracy","right","right",1,3.89317374999519
"sub-046",8,"left","accuracy","left","left",1,3.91215470799943
"sub-046",9,"left","accuracy","left","left",1,1.4763402499957
"sub-046",10,"right","accuracy","right","left",0,2.41520458398736
"sub-046",11,"left","accuracy","left","right",0,4.27626341598807
"sub-046",12,"right","accuracy","right","right",1,2.88934045901988
"sub-046",13,"left","accuracy","left","right",0,2.224783209007
"sub-046",14,"right","accuracy","right","right",1,4.43515129201114
"sub-046",15,"left","accuracy","left","left",1,5.57559766600025
"sub-046",16,"right","accuracy","right","right",1,4.39208066600258
"sub-046",17,"left","accuracy","left","left",1,6.46504916599952
"sub-046",18,"right","accuracy","right","left",0,4.5247550829954
"sub-046",19,"left","accuracy","left","right",0,3.55530395900132
"sub-046",20,"right","accuracy","right","left",0,5.74876025001868
"sub-046",21,"right","accuracy","right","right",1,3.46041141700698
"sub-046",22,"left","accuracy","left","right",0,4.009070583008
"sub-046",23,"right","accuracy","right","left",0,4.80653679202078
"sub-046",24,"left","accuracy","left","right",0,3.59799574999488
"sub-046",25,"right","accuracy","right","left",0,3.53574849999859
"sub-046",26,"left","accuracy","left","right",0,4.94117108298815
"sub-046",27,"right","accuracy","right","left",0,2.55933341602213
"sub-046",28,"left","accuracy","left","left",1,3.71313020799425
"sub-046",29,"left","accuracy","left","left",1,4.04825795901706
"sub-046",30,"right","accuracy","right","left",0,5.44689866699628
"sub-046",31,"left","accuracy","left","right",0,4.3255419160123
"sub-046",32,"right","accuracy","right","right",1,5.7649502500135
"sub-046",33,"right","accuracy","right","right",1,4.31927512498805
"sub-046",34,"left","accuracy","left","left",1,2.81707312501385
"sub-046",35,"left","accuracy","left","left",1,3.69081849997747
"sub-046",36,"right","accuracy","right","right",1,3.40775133299758
"sub-046",37,"left","accuracy","left","right",0,3.79426970900386
"sub-046",38,"right","accuracy","right","right",1,3.80551362497499
"sub-046",39,"left","accuracy","left","left",1,2.2900702089828
"sub-046",40,"right","accuracy","right","right",1,4.48657516698586
"sub-046",41,"left","accuracy","left","right",0,2.81069574999856
"sub-046",42,"right","accuracy","right","right",1,5.91596491701785
"sub-046",43,"right","accuracy","right","right",1,4.57940137499827
"sub-046",44,"left","accuracy","left","left",1,3.27033966701129
"sub-046",45,"left","accuracy","left","left",1,4.70730070801801
"sub-046",46,"right","accuracy","right","right",1,5.37934012501501
"sub-046",47,"right","accuracy","right","left",0,2.19605074997526
"sub-046",48,"left","accuracy","left","left",1,3.63112208401435
"sub-046",49,"left","accuracy","left","right",0,3.75821245799307
"sub-046",50,"right","accuracy","right","right",1,4.78025375001016
"sub-046",51,"right","accuracy","right","left",0,3.85837900001206
"sub-046",52,"left","accuracy","left","right",0,5.61621883400949
"sub-046",53,"right","accuracy","right","right",1,2.30952108398196
"sub-046",54,"left","accuracy","left","left",1,3.52699633300654
"sub-046",55,"right","accuracy","right","right",1,3.30088212501141
"sub-046",56,"left","accuracy","left","right",0,3.37953566701617
"sub-046",57,"left","accuracy","left","left",1,3.71435200000997
"sub-046",58,"right","accuracy","right","right",1,4.65775600000052
"sub-046",59,"right","accuracy","right","right",1,5.57127120898804
"sub-046",60,"left","accuracy","left","left",1,3.5204279590107
"sub-046",1,"left","speed","left","left",1,2.15848566699424
"sub-046",2,"right","speed","right","right",1,1.05282041701139
"sub-046",3,"right","speed","right","left",0,2.34151374999783
"sub-046",4,"left","speed","left","left",1,0.938256082998123
"sub-046",5,"left","speed","left","left",1,2.12200795902754
"sub-046",6,"right","speed","right","right",1,1.60778491699602
"sub-046",7,"left","speed","left","right",0,1.46578220900847
"sub-046",8,"right","speed","right","right",1,0.898530250007752
"sub-046",9,"left","speed","left","left",1,0.582457582990173
"sub-046",10,"right","speed","right","right",1,2.98007625000901
"sub-046",11,"left","speed","left","left",1,0.518852582987165
"sub-046",12,"right","speed","right","right",1,1.53665137500502
"sub-046",13,"right","speed","right","left",0,0.582486250001239
"sub-046",14,"left","speed","left","right",0,1.53263912501279
"sub-046",15,"left","speed","left","left",1,0.762879167014034
"sub-046",16,"right","speed","right","left",0,2.34477354201954
"sub-046",17,"right","speed","right","left",0,2.6488210829848
"sub-046",18,"left","speed","left","right",0,1.602603834006
"sub-046",19,"left","speed","left","left",1,1.64292891701916
"sub-046",20,"right","speed","right","right",1,2.83534154199879
"sub-046",21,"left","speed","left","left",1,0.877244707982754
"sub-046",22,"right","speed","right","right",1,3.1200045000005
"sub-046",23,"right","speed","right","right",1,2.23234487499576
"sub-046",24,"left","speed","left","left",1,1.60995354197803
"sub-046",25,"left","speed","left","right",0,1.90676929202164
"sub-046",26,"right","speed","right","left",0,1.03303883300396
"sub-046",27,"right","speed","right","left",0,1.81098487501731
"sub-046",28,"left","speed","left","right",0,2.34401220802101
"sub-046",29,"right","speed","right","left",0,3.88683483400382
"sub-046",30,"left","speed","left","left",1,3.23154266699567
"sub-046",31,"left","speed","left","left",1,4.35784658399643
"sub-046",32,"right","speed","right","right",1,2.55821149999974
"sub-046",33,"right","speed","right","right",1,2.07411779201357
"sub-046",34,"left","speed","left","left",1,1.13005541701568
"sub-046",35,"left","speed","left","right",0,2.32155745799537
"sub-046",36,"right","speed","right","right",1,1.62459591700463
"sub-046",37,"right","speed","right","right",1,2.11891954101156
"sub-046",38,"left","speed","left","right",0,1.79599837498972
"sub-046",39,"right","speed","right","right",1,2.13335162500152
"sub-046",40,"left","speed","left","right",0,2.7702886670013
"sub-046",41,"left","speed","left","left",1,1.28217216700432
"sub-046",42,"right","speed","right","right",1,1.31677791700349
"sub-046",43,"left","speed","left","left",1,2.27490874999785
"sub-046",44,"right","speed","right","right",1,1.97039562501595
"sub-046",45,"right","speed","right","left",0,3.2145211660245
"sub-046",46,"left","speed","left","right",0,1.94767962498008
"sub-046",47,"right","speed","right","right",1,4.82131991599454
"sub-046",48,"left","speed","left","right",0,2.79849612500402
"sub-046",49,"right","speed","right","right",1,4.71648429200286
"sub-046",50,"left","speed","left","left",1,3.44188262501848
"sub-046",51,"left","speed","left","right",0,2.04206683300436
"sub-046",52,"right","speed","right","right",1,2.29709733300842
"sub-046",53,"right","speed","right","right",1,5.8191482090042
"sub-046",54,"left","speed","left","left",1,3.87264829099877
"sub-046",55,"left","speed","left","right",0,2.22659637499601
"sub-046",56,"right","speed","right","right",1,2.87835212500067
"sub-046",57,"right","speed","right","right",1,1.6008432499948
"sub-046",58,"left","speed","left","left",1,3.1020706660056
"sub-046",59,"right","speed","right","right",1,3.60885762498947
"sub-046",60,"left","speed","left","right",0,2.23435966699617
"sub-047",1,"left","accuracy","left","left",1,0.8266321310075
"sub-047",2,"right","accuracy","right","right",1,1.42713360500056
"sub-047",3,"right","accuracy","right","right",1,0.944040827977005
"sub-047",4,"left","accuracy","left","left",1,0.844944702985231
"sub-047",5,"right","accuracy","right","right",1,1.17866641102592
"sub-047",6,"left","accuracy","left","left",1,0.914949507976416
"sub-047",7,"right","accuracy","right","right",1,0.909884363994934
"sub-047",8,"left","accuracy","left","left",1,1.36850722797681
"sub-047",9,"left","accuracy","left","left",1,1.15609883499565
"sub-047",10,"right","accuracy","right","right",1,0.935888044012245
"sub-047",11,"right","accuracy","right","right",1,1.88053095899522
"sub-047",12,"left","accuracy","left","left",1,0.904790423985105
"sub-047",13,"left","accuracy","left","left",1,1.30400388798444
"sub-047",14,"right","accuracy","right","right",1,0.800561795011163
"sub-047",15,"right","accuracy","right","right",1,2.83578486304032
"sub-047",16,"left","accuracy","left","left",1,0.680836142040789
"sub-047",17,"right","accuracy","right","right",1,1.35350486997049
"sub-047",18,"left","accuracy","left","right",0,2.02240497799357
"sub-047",19,"left","accuracy","left","left",1,0.74532123102108
"sub-047",20,"right","accuracy","right","right",1,1.05049970396794
"sub-047",21,"right","accuracy","right","left",0,1.08923546498409
"sub-047",22,"left","accuracy","left","left",1,0.724710019945633
"sub-047",23,"left","accuracy","left","left",1,1.00309702800587
"sub-047",24,"right","accuracy","right","right",1,0.697844588023145
"sub-047",25,"right","accuracy","right","right",1,1.34222276200308
"sub-047",26,"left","accuracy","left","left",1,0.67956083099125
"sub-047",27,"left","accuracy","left","left",1,1.17200395400869
"sub-047",28,"right","accuracy","right","right",1,0.63539137004409
"sub-047",29,"right","accuracy","right","right",1,1.37260334397433
"sub-047",30,"left","accuracy","left","left",1,0.743028130964376
"sub-047",31,"left","accuracy","left","left",1,0.832593660976272
"sub-047",32,"right","accuracy","right","right",1,1.14292537799338
"sub-047",33,"left","accuracy","left","left",1,0.744215835991781
"sub-047",34,"right","accuracy","right","right",1,0.926255066005979
"sub-047",35,"right","accuracy","right","left",0,0.752325784007553
"sub-047",36,"left","accuracy","left","left",1,0.901429188030306
"sub-047",37,"right","accuracy","right","right",1,0.891609471989796
"sub-047",38,"left","accuracy","left","left",1,0.943016702018212
"sub-047",39,"left","accuracy","left","left",1,0.876922496012412
"sub-047",40,"right","accuracy","right","right",1,0.939233182987664
"sub-047",41,"left","accuracy","left","left",1,0.724739024997689
"sub-047",42,"right","accuracy","right","right",1,0.778953019995242
"sub-047",43,"right","accuracy","right","right",1,1.06666691298597
"sub-047",44,"left","accuracy","left","left",1,0.665053543052636
"sub-047",45,"left","accuracy","left","left",1,1.42120441101724
"sub-047",46,"right","accuracy","right","right",1,0.788925080036279
"sub-047",47,"left","accuracy","left","left",1,1.10124615899986
"sub-047",48,"right","accuracy","right","right",1,0.923563659016509
"sub-047",49,"left","accuracy","left","left",1,1.00175504898652
"sub-047",50,"right","accuracy","right","right",1,1.11175809596898
"sub-047",51,"right","accuracy","right","right",1,1.43083916499745
"sub-047",52,"left","accuracy","left","left",1,1.81702136603417
"sub-047",53,"left","accuracy","left","left",1,1.44713504897663
"sub-047",54,"right","accuracy","right","right",1,1.20678144297563
"sub-047",55,"left","accuracy","left","left",1,1.71968962601386
"sub-047",56,"right","accuracy","right","left",0,1.80588836898096
"sub-047",57,"left","accuracy","left","left",1,1.50879231502768
"sub-047",58,"right","accuracy","right","right",1,0.880967659992166
"sub-047",59,"right","accuracy","right","right",1,2.23080810799729
"sub-047",60,"left","accuracy","left","left",1,1.99332621495705
"sub-047",1,"right","speed","right","right",1,0.670993537001777
"sub-047",2,"left","speed","left","left",1,0.579240785038564
"sub-047",3,"left","speed","left","left",1,0.715571953973267
"sub-047",4,"right","speed","right","right",1,0.654362908040639
"sub-047",5,"left","speed","left","left",1,0.629556248022709
"sub-047",6,"right","speed","right","right",1,0.755929859005846
"sub-047",7,"left","speed","left","left",1,0.739847617980558
"sub-047",8,"right","speed","right","right",1,1.02564826601883
"sub-047",9,"left","speed","left","left",1,0.650259379995987
"sub-047",10,"right","speed","right","right",1,0.724908004980534
"sub-047",11,"left","speed","left","left",1,0.646917808044236
"sub-047",12,"right","speed","right","right",1,0.6204447200289
"sub-047",13,"right","speed","right","left",0,0.876860755961388
"sub-047",14,"left","speed","left","left",1,0.960904875013512
"sub-047",15,"right","speed","right","right",1,0.5855102330097
"sub-047",16,"left","speed","left","left",1,0.764591972052585
"sub-047",17,"left","speed","left","right",0,1.44062501797453
"sub-047",18,"right","speed","right","right",1,1.95021890598582
"sub-047",19,"right","speed","right","right",1,2.36164691799786
"sub-047",20,"left","speed","left","left",1,0.946250472974498
"sub-047",21,"left","speed","left","right",0,1.70208608504618
"sub-047",22,"right","speed","right","right",1,1.8386485959636
"sub-047",23,"left","speed","left","left",1,0.659409760963172
"sub-047",24,"right","speed","right","right",1,1.16732067801058
"sub-047",25,"right","speed","right","right",1,1.39188362000277
"sub-047",26,"left","speed","left","left",1,0.887272806023248
"sub-047",27,"left","speed","left","left",1,0.826173787005246
"sub-047",28,"right","speed","right","right",1,0.89186219102703
"sub-047",29,"right","speed","right","right",1,1.53526857495308
"sub-047",30,"left","speed","left","right",0,1.46804363100091
"sub-047",31,"left","speed","left","left",1,0.792366194014903
"sub-047",32,"right","speed","right","right",1,0.771888717019465
"sub-047",33,"right","speed","right","right",1,1.36011368600884
"sub-047",34,"left","speed","left","left",1,0.775976445991546
"sub-047",35,"right","speed","right","right",1,0.703526087978389
"sub-047",36,"left","speed","left","left",1,0.658470880007371
"sub-047",37,"left","speed","left","right",0,1.00943563703913
"sub-047",38,"right","speed","right","right",1,1.43222451000474
"sub-047",39,"left","speed","left","left",1,0.896407475986052
"sub-047",40,"right","speed","right","right",1,0.795232174976263
"sub-047",41,"right","speed","right","right",1,0.778208956005983
"sub-047",42,"left","speed","left","left",1,0.794221318967175
"sub-047",43,"left","speed","left","left",1,0.769338763027918
"sub-047",44,"right","speed","right","right",1,1.42097230500076
"sub-047",45,"right","speed","right","right",1,3.34850252803881
"sub-047",46,"left","speed","left","right",0,1.57841770700179
"sub-047",47,"right","speed","right","right",1,0.874515570991207
"sub-047",48,"left","speed","left","left",1,0.750147113983985
"sub-047",49,"left","speed","left","left",1,0.776036030030809
"sub-047",50,"right","speed","right","right",1,0.823044413991738
"sub-047",51,"right","speed","right","right",1,1.24626630201237
"sub-047",52,"left","speed","left","left",1,0.971705036005005
"sub-047",53,"right","speed","right","left",0,1.90347177098738
"sub-047",54,"left","speed","left","left",1,0.953531951003242
"sub-047",55,"right","speed","right","right",1,0.866371496987995
"sub-047",56,"left","speed","left","left",1,1.11503143195296
"sub-047",57,"left","speed","left","left",1,1.06559048703639
"sub-047",58,"right","speed","right","right",1,1.29733023501467
"sub-047",59,"left","speed","left","left",1,0.676040739985183
"sub-047",60,"right","speed","right","right",1,0.674340013996698
"sub-058",1,"left","accuracy","left","right",0,5.78801087501051
"sub-058",2,"right","accuracy","right","right",1,5.24266787500528
"sub-058",3,"right","accuracy","right","left",0,4.33482037500653
"sub-058",4,"left","accuracy","left","right",0,1.58955666700786
"sub-058",5,"left","accuracy","left","left",1,2.14703470800305
"sub-058",6,"right","accuracy","right","right",1,2.1103310410108
"sub-058",7,"left","accuracy","left","left",1,2.2710692910041
"sub-058",8,"right","accuracy","right","right",1,1.56874833299662
"sub-058",9,"left","accuracy","left","left",1,1.39322045800509
"sub-058",10,"right","accuracy","right","right",1,2.24718129099347
"sub-058",11,"left","accuracy","left","left",1,1.07701029100281
"sub-058",12,"right","accuracy","right","right",1,1.28087875001074
"sub-058",13,"left","accuracy","left","left",1,0.84791545799817
"sub-058",14,"right","accuracy","right","right",1,0.918885041013709
"sub-058",15,"right","accuracy","right","left",0,0.81267983300495
"sub-058",16,"left","accuracy","left","right",0,1.72801120800432
"sub-058",17,"left","accuracy","left","right",0,5.68218024999078
"sub-058",18,"right","accuracy","right","left",0,1.22972812499211
"sub-058",19,"right","accuracy","right","left",0,1.77407358300115
"sub-058",20,"left","accuracy","left","left",1,1.29033237499243
"sub-058",21,"right","accuracy","right","left",0,1.27672991699365
"sub-058",22,"left","accuracy","left","right",0,1.49050900001021
"sub-058",23,"right","accuracy","right","right",1,0.998553750003339
"sub-058",24,"left","accuracy","left","right",0,1.31398741700104
"sub-058",25,"right","accuracy","right","right",1,1.66751304200443
"sub-058",26,"left","accuracy","left","left",1,1.09961408399977
"sub-058",27,"left","accuracy","left","left",1,1.16199083298852
"sub-058",28,"right","accuracy","right","right",1,1.07881458300108
"sub-058",29,"right","accuracy","right","left",0,1.20771916701051
"sub-058",30,"left","accuracy","left","left",1,1.54967070800194
"sub-058",31,"right","accuracy","right","right",1,0.943186125005013
"sub-058",32,"left","accuracy","left","left",1,1.01660620799521
"sub-058",33,"left","accuracy","left","right",0,0.825625584009686
"sub-058",34,"right","accuracy","right","left",0,1.60035162499116
"sub-058",35,"left","accuracy","left","left",1,1.62951020899345
"sub-058",36,"right","accuracy","right","right",1,0.814932124994812
"sub-058",37,"left","accuracy","left","left",1,0.899243416002719
"sub-058",38,"right","accuracy","right","left",0,3.1745232079993
"sub-058",39,"left","accuracy","left","right",0,1.54640199999267
"sub-058",40,"right","accuracy","right","right",1,1.01188512500084
"sub-058",41,"left","accuracy","left","right",0,0.842302958990331
"sub-058",42,"right","accuracy","right","right",1,0.997268541002995
"sub-058",43,"right","accuracy","right","right",1,1.02700158298831
"sub-058",44,"left","accuracy","left","left",1,2.22533145900525
"sub-058",45,"right","accuracy","right","right",1,1.02264562500932
"sub-058",46,"left","accuracy","left","left",1,0.853640458008158
"sub-058",47,"left","accuracy","left","left",1,1.8762505830091
"sub-058",48,"right","accuracy","right","right",1,5.4437837919977
"sub-058",49,"right","accuracy","right","right",1,1.11390091700014
"sub-058",50,"left","accuracy","left","left",1,0.716362166989711
"sub-058",51,"right","accuracy","right","left",0,1.3165897919971
"sub-058",52,"left","accuracy","left","left",1,1.25674058300501
"sub-058",53,"left","accuracy","left","left",1,1.01451070798794
"sub-058",54,"right","accuracy","right","right",1,5.64303116599331
"sub-058",55,"right","accuracy","right","right",1,3.80370849999599
"sub-058",56,"left","accuracy","left","left",1,1.64679979199718
"sub-058",57,"left","accuracy","left","left",1,1.70762670799741
"sub-058",58,"right","accuracy","right","left",0,2.34728279199044
"sub-058",59,"right","accuracy","right","right",1,0.874566625003354
"sub-058",60,"left","accuracy","left","left",1,0.776792042001034
"sub-058",1,"right","speed","right","right",1,0.998041667000507
"sub-058",2,"left","speed","left","left",1,0.530827583002974
"sub-058",3,"left","speed","left","right",0,1.35983441700228
"sub-058",4,"right","speed","right","left",0,0.774746542010689
"sub-058",5,"left","speed","left","right",0,0.673753124996438
"sub-058",6,"right","speed","right","left",0,0.75192816600611
"sub-058",7,"right","speed","right","right",1,2.52454437500273
"sub-058",8,"left","speed","left","right",0,1.26333004199842
"sub-058",9,"left","speed","left","left",1,0.832512749999296
"sub-058",10,"right","speed","right","left",0,0.821668415999738
"sub-058",11,"right","speed","right","left",0,0.876046000004862
"sub-058",12,"left","speed","left","right",0,1.42728524999984
"sub-058",13,"right","speed","right","left",0,0.673549541999819
"sub-058",14,"left","speed","left","left",1,1.16909841699817
"sub-058",15,"right","speed","right","left",0,0.821259584001382
"sub-058",16,"left","speed","left","left",1,0.818341207996127
"sub-058",17,"left","speed","left","right",0,0.541596249997383
"sub-058",18,"right","speed","right","right",1,1.2182354159886
"sub-058",19,"right","speed","right","left",0,0.876875208996353
"sub-058",20,"left","speed","left","left",1,0.779206582999905
"sub-058",21,"left","speed","left","left",1,0.844709957993473
"sub-058",22,"right","speed","right","left",0,0.77448400000867
"sub-058",23,"left","speed","left","left",1,2.3399694589898
"sub-058",24,"right","speed","right","right",1,1.09373966700514
"sub-058",25,"left","speed","left","left",1,0.826230749997194
"sub-058",26,"right","speed","right","left",0,2.65291708300356
"sub-058",27,"left","speed","left","left",1,1.39550370900542
"sub-058",28,"right","speed","right","left",0,1.01008900000306
"sub-058",29,"right","speed","right","right",1,0.616838249989087
"sub-058",30,"left","speed","left","right",0,0.551395665999735
"sub-058",31,"left","speed","left","left",1,0.679225667001447
"sub-058",32,"right","speed","right","right",1,0.639352250000229
"sub-058",33,"right","speed","right","left",0,0.881154167000204
"sub-058",34,"left","speed","left","right",0,0.939954707995639
"sub-058",35,"right","speed","right","right",1,4.57548995799152
"sub-058",36,"left","speed","left","left",1,1.37862929099356
"sub-058",37,"left","speed","left","right",0,1.21574612500262
"sub-058",38,"right","speed","right","right",1,0.78714349999791
"sub-058",39,"left","speed","left","left",1,5.7187832500058
"sub-058",40,"right","speed","right","left",0,5.80738399999973
"sub-058",41,"left","speed","left","right",0,3.80062254199584
"sub-058",42,"right","speed","right","right",1,3.75147645799734
"sub-058",43,"left","speed","left","left",1,1.69233541699941
"sub-058",44,"right","speed","right","right",1,2.15763008399517
"sub-058",45,"right","speed","right","right",1,1.48643379099667
"sub-058",46,"left","speed","left","left",1,2.33728462499857
"sub-058",47,"left","speed","left","left",1,1.36763824999798
"sub-058",48,"right","speed","right","right",1,1.55284750000283
"sub-058",49,"right","speed","right","right",1,1.47985958300706
"sub-058",50,"left","speed","left","right",0,1.08406866699806
"sub-058",51,"right","speed","right","left",0,0.876351375001832
"sub-058",52,"left","speed","left","left",1,0.87204324999766
"sub-058",53,"left","speed","left","left",1,0.683168624993414
"sub-058",54,"right","speed","right","right",1,0.701128207991133
"sub-058",55,"right","speed","right","right",1,1.33056504100387
"sub-058",56,"left","speed","left","left",1,4.37849508300133
"sub-058",57,"left","speed","left","left",1,1.59320929199748
"sub-058",58,"right","speed","right","left",0,1.2277599999943
"sub-058",59,"right","speed","right","right",1,1.72217783299857
"sub-058",60,"left","speed","left","right",0,0.845864875009283
"sub-062",1,"left","accuracy","left","left",1,1.11041994900006
"sub-062",2,"right","accuracy","right","right",1,0.78002826699958
"sub-062",3,"left","accuracy","left","left",1,0.796665030999975
"sub-062",4,"right","accuracy","right","right",1,1.3461636029997
"sub-062",5,"right","accuracy","right","left",0,0.911697399000332
"sub-062",6,"left","accuracy","left","left",1,1.42937143400013
"sub-062",7,"left","accuracy","left","left",1,1.5261920490002
"sub-062",8,"right","accuracy","right","right",1,4.90129449399956
"sub-062",9,"right","accuracy","right","left",0,1.79427005399975
"sub-062",10,"left","accuracy","left","left",1,1.26076219300012
"sub-062",11,"left","accuracy","left","left",1,1.01175771599992
"sub-062",12,"right","accuracy","right","right",1,0.694585562999237
"sub-062",13,"right","accuracy","right","left",0,0.915610449999804
"sub-062",14,"left","accuracy","left","left",1,1.03625643899977
"sub-062",15,"right","accuracy","right","left",0,0.798354462000134
"sub-062",16,"left","accuracy","left","left",1,1.37960136200036
"sub-062",17,"left","accuracy","left","left",1,2.92220139599976
"sub-062",18,"right","accuracy","right","right",1,3.1916061689999
"sub-062",19,"right","accuracy","right","left",0,0.979943943999388
"sub-062",20,"left","accuracy","left","left",1,1.01953013799994
"sub-062",21,"left","accuracy","left","left",1,0.883582061999732
"sub-062",22,"right","accuracy","right","right",1,0.755769040999439
"sub-062",23,"left","accuracy","left","left",1,0.793505141999958
"sub-062",24,"right","accuracy","right","right",1,1.37294443900009
"sub-062",25,"right","accuracy","right","left",0,0.89346065799964
"sub-062",26,"left","accuracy","left","right",0,1.33323189000021
"sub-062",27,"right","accuracy","right","right",1,1.03562053800033
"sub-062",28,"left","accuracy","left","left",1,0.722376292999797
"sub-062",29,"right","accuracy","right","right",1,0.66542610200031
"sub-062",30,"left","accuracy","left","left",1,0.694184578999739
"sub-062",31,"right","accuracy","right","right",1,0.614212269999371
"sub-062",32,"left","accuracy","left","left",1,0.778789922000215
"sub-062",33,"left","accuracy","left","left",1,0.688844702000097
"sub-062",34,"right","accuracy","right","right",1,1.95416968300015
"sub-062",35,"left","accuracy","left","left",1,0.755100841000058
"sub-062",36,"right","accuracy","right","right",1,0.628867780000292
"sub-062",37,"right","accuracy","right","right",1,1.48128510900005
"sub-062",38,"left","accuracy","left","left",1,0.699750706000486
"sub-062",39,"right","accuracy","right","right",1,0.837945213000239
"sub-062",40,"left","accuracy","left","left",1,0.93783008399987
"sub-062",41,"left","accuracy","left","left",1,1.68170665100024
"sub-062",42,"right","accuracy","right","right",1,0.827456628000618
"sub-062",43,"left","accuracy","left","left",1,0.926515703000405
"sub-062",44,"right","accuracy","right","right",1,0.696798822999881
"sub-062",45,"right","accuracy","right","left",0,1.03110842299975
"sub-062",46,"left","accuracy","left","left",1,5.70731887199963
"sub-062",47,"right","accuracy","right","right",1,1.01059830100075
"sub-062",48,"left","accuracy","left","left",1,0.703756335999969
"sub-062",49,"right","accuracy","right","right",1,0.775973562999752
"sub-062",50,"left","accuracy","left","left",1,1.51249628700043
"sub-062",51,"right","accuracy","right","right",1,0.955773882999892
"sub-062",52,"left","accuracy","left","left",1,0.636584935000428
"sub-062",53,"left","accuracy","left","left",1,0.78371033700023
"sub-062",54,"right","accuracy","right","right",1,0.601861334000205
"sub-062",55,"left","accuracy","left","left",1,0.652709961000255
"sub-062",56,"right","accuracy","right","right",1,0.869792453000628
"sub-062",57,"right","accuracy","right","left",0,0.628655466000055
"sub-062",58,"left","accuracy","left","left",1,0.828256298999804
"sub-062",59,"left","accuracy","left","left",1,1.80152101200019
"sub-062",60,"right","accuracy","right","right",1,0.652786321999884
"sub-062",1,"left","speed","left","left",1,0.678685204999965
"sub-062",2,"right","speed","right","right",1,0.470372392000172
"sub-062",3,"left","speed","left","left",1,0.511898920000021
"sub-062",4,"right","speed","right","right",1,0.50972278900008
"sub-062",5,"left","speed","left","left",1,0.465114034999715
"sub-062",6,"right","speed","right","right",1,0.781208353999318
"sub-062",7,"left","speed","left","left",1,0.719859370999984
"sub-062",8,"right","speed","right","right",1,0.587618134999502
"sub-062",9,"left","speed","left","left",1,0.5346891829995
"sub-062",10,"right","speed","right","right",1,1.45265547700001
"sub-062",11,"left","speed","left","right",0,1.9137499920007
"sub-062",12,"right","speed","right","right",1,0.731118547999358
"sub-062",13,"right","speed","right","right",1,0.672629483000492
"sub-062",14,"left","speed","left","left",1,0.513997381000081
"sub-062",15,"right","speed","right","right",1,0.694176023000182
"sub-062",16,"left","speed","left","left",1,0.500360811999599
"sub-062",17,"right","speed","right","right",1,0.711181055000452
"sub-062",18,"left","speed","left","right",0,0.667232948000674
"sub-062",19,"right","speed","right","right",1,0.681945250000354
"sub-062",20,"left","speed","left","left",1,0.746832346000701
"sub-062",21,"left","speed","left","left",1,1.19416697699944
"sub-062",22,"right","speed","right","right",1,0.620226419000574
"sub-062",23,"left","speed","left","left",1,1.41964653800005
"sub-062",24,"right","speed","right","right",1,0.588929763000124
"sub-062",25,"left","speed","left","left",1,1.73469651799951
"sub-062",26,"right","speed","right","right",1,0.594574474000183
"sub-062",27,"right","speed","right","right",1,0.658024099999238
"sub-062",28,"left","speed","left","left",1,0.693862557999637
"sub-062",29,"left","speed","left","right",0,0.487115883000115
"sub-062",30,"right","speed","right","right",1,0.787238490000163
"sub-062",31,"right","speed","right","right",1,0.598811050999757
"sub-062",32,"left","speed","left","right",0,0.512438587999895
"sub-062",33,"left","speed","left","left",1,0.531205655000122
"sub-062",34,"right","speed","right","right",1,0.521788506000121
"sub-062",35,"right","speed","right","right",1,0.481549584999811
"sub-062",36,"left","speed","left","right",0,0.452475127999605
"sub-062",37,"left","speed","left","right",0,0.45774274500036
"sub-062",38,"right","speed","right","right",1,0.765070927000124
"sub-062",39,"right","speed","right","right",1,0.611846259999766
"sub-062",40,"left","speed","left","right",0,0.771882643999561
"sub-062",41,"right","speed","right","right",1,0.660792982999737
"sub-062",42,"left","speed","left","right",0,0.777020178999919
"sub-062",43,"right","speed","right","right",1,0.65134160100024
"sub-062",44,"left","speed","left","right",0,1.21508040299977
"sub-062",45,"right","speed","right","right",1,1.41255289900073
"sub-062",46,"left","speed","left","right",0,3.01213521600039
"sub-062",47,"left","speed","left","left",1,1.78867246799928
"sub-062",48,"right","speed","right","right",1,1.14603201599948
"sub-062",49,"right","speed","right","right",1,0.9801273639996
"sub-062",50,"left","speed","left","right",0,1.51562726999964
"sub-062",51,"right","speed","right","right",1,1.24953701599952
"sub-062",52,"left","speed","left","left",1,1.47028076399965
"sub-062",53,"right","speed","right","left",0,1.13555567000003
"sub-062",54,"left","speed","left","left",1,1.05081000799964
"sub-062",55,"left","speed","left","left",1,1.08095019699977
"sub-062",56,"right","speed","right","left",0,1.13050875599947
